File: tomke/20240809_Si_on_TiO2/20240809/corrected Raman data export/AS_0mA.txt
-194.586	-0.0155556
-195.038	0.0127778
-195.49	-0.00488889
-195.942	0.00655556
-196.394	0.0101111
-196.846	-0.0378889
-197.298	-0.0242222
-197.75	0.00622222
-198.202	0.0276667
-198.654	-0.0346667
-199.106	-0.0531111
-199.558	-0.0634444
-200.011	-0.0131111
-200.463	-0.0226667
-200.915	-0.00455556
-201.367	0.0191111
-201.82	0.0202222
-202.272	-0.000444444
-202.724	0.0197778
-203.177	0.032
-203.629	0.0486667
-204.081	0.00111111
-204.534	0.00333333
-204.986	0.0287778
-205.439	-0.0148889
-205.891	0.0378889
-206.344	0.0107778
-206.796	0.0431111
-207.249	-0.00222222
-207.701	-0.0631111
-208.154	0.0231111
-208.606	-0.00755556
-209.059	-0.0584444
-209.512	-0.0255556
-209.964	-0.0491111
-210.417	-0.0322222
-210.87	0.0123333
-211.322	0.00733333
-211.775	-0.00122222
-212.228	-0.003
-212.681	-0.0266667
-213.133	0.0404444
-213.586	0.0397778
-214.039	-0.0253333
-214.492	-0.00211111
-214.945	-0.0368889
-215.398	0.0317778
-215.851	0.0318889
-216.304	0.0358889
-216.757	0.00877778
-217.21	-0.0436667
-217.663	-0.00777778
-218.116	0.006
-218.569	-0.00855556
-219.022	0.0283333
-219.475	0.109111
-219.928	0.00511111
-220.381	-0.0282222
-220.835	0.00433333
-221.288	0.0441111
-221.741	0.0471111
-222.194	0.0325556
-222.648	-0.0253333
-223.101	-0.032
-223.554	0.0393333
-224.008	-0.0112222
-224.461	-0.0701111
-224.914	0.0127778
-225.368	-0.0446667
-225.821	-0.00777778
-226.275	-0.0257778
-226.728	0.0203333
-227.181	-0.00744444
-227.635	0.0397778
-228.088	0.0345556
-228.542	0.0388889
-228.996	0.026
-229.449	0.0272222
-229.903	0.0475556
-230.356	0.0181111
-230.81	0.0271111
-231.264	0.0183333
-231.717	0.00266667
-232.171	0.00133333
-232.625	0.027
-233.079	0.0144444
-233.532	-0.00877778
-233.986	0.0277778
-234.44	-0.0384444
-234.894	0.023
-235.348	-0.0527778
-235.802	0.00255556
-236.256	0.0432222
-236.71	-0.0158889
-237.164	0.008
-237.618	0.0407778
-238.072	0.0688889
-238.526	-0.00711111
-238.98	0.045
-239.434	-0.0631111
-239.888	-0.0384444
-240.342	0.022
-240.796	-0.041
-241.25	0.0157778
-241.704	-0.0205556
-242.159	-0.0613333
-242.613	-0.0414444
-243.067	-0.0311111
-243.521	-0.0105556
-243.976	-0.00966667
-244.43	0.00633333
-244.884	0.056
-245.339	0.043
-245.793	0.0262222
-246.247	-0.0323333
-246.702	-0.00133333
-247.156	0.0397778
-247.611	0.0305556
-248.065	0.0134444
-248.52	-0.000777778
-248.974	0.0275556
-249.429	0.0367778
-249.883	0.0411111
-250.338	0.0475556
-250.792	0.0151111
-251.247	0.00355556
-251.702	0.00777778
-252.156	-0.0155556
-252.611	0.00422222
-253.066	0.00344444
-253.52	-0.011
-253.975	0.0545556
-254.43	-0.0453333
-254.885	-0.0361111
-255.34	-0.0122222
-255.794	-0.0383333
-256.249	0.0212222
-256.704	-0.0185556
-257.159	0.0697778
-257.614	0.0233333
-258.069	0.00366667
-258.524	-0.0392222
-258.979	0.0548889
-259.434	0.100222
-259.889	-0.0114444
-260.344	0.0288889
-260.799	0.0622222
-261.254	0.0348889
-261.709	0.0752222
-262.165	0.00744444
-262.62	-0.0254444
-263.075	0.0321111
-263.53	0.044
-263.985	0.0727778
-264.441	0.0524444
-264.896	0.061
-265.351	0.0316667
-265.807	0.0604444
-266.262	0.0582222
-266.717	0.0455556
-267.173	0.0712222
-267.628	0.00211111
-268.084	0.0503333
-268.539	0.0707778
-268.994	0.144667
-269.45	0.101
-269.905	0.0425556
-270.361	0.0152222
-270.817	0.0854444
-271.272	0.113333
-271.728	0.0773333
-272.183	0.0783333
-272.639	0.0793333
-273.095	0.0832222
-273.55	0.110889
-274.006	0.0732222
-274.462	0.124444
-274.918	0.121556
-275.373	0.150444
-275.829	0.167889
-276.285	0.179444
-276.741	0.114222
-277.197	0.117
-277.653	0.144778
-278.109	0.127556
-278.564	0.131111
-279.02	0.166556
-279.476	0.220222
-279.932	0.162444
-280.388	0.167333
-280.844	0.165333
-281.3	0.196444
-281.757	0.172444
-282.213	0.238667
-282.669	0.130556
-283.125	0.227
-283.581	0.233889
-284.037	0.243778
-284.494	0.232222
-284.95	0.195778
-285.406	0.238333
-285.862	0.207333
-286.319	0.224556
-286.775	0.204889
-287.231	0.235111
-287.688	0.278778
-288.144	0.252
-288.6	0.216111
-289.057	0.281556
-289.513	0.198667
-289.97	0.227778
-290.426	0.248556
-290.883	0.215778
-291.339	0.269778
-291.796	0.276111
-292.252	0.269556
-292.709	0.160444
-293.166	0.277333
-293.622	0.187667
-294.079	0.263222
-294.536	0.237889
-294.992	0.254667
-295.449	0.294222
-295.906	0.222889
-296.363	0.273222
-296.82	0.287778
-297.276	0.310667
-297.733	0.275222
-298.19	0.283111
-298.647	0.279667
-299.104	0.267333
-299.561	0.233
-300.018	0.256111
-300.475	0.306667
-300.932	0.300889
-301.389	0.268222
-301.846	0.307667
-302.303	0.327222
-302.76	0.316222
-303.217	0.266444
-303.674	0.336444
-304.131	0.310778
-304.589	0.286556
-305.046	0.332333
-305.503	0.291778
-305.96	0.291556
-306.417	0.300333
-306.875	0.206
-307.332	0.239111
-307.789	0.209444
-308.247	0.276667
-308.704	0.272444
-309.161	0.238111
-309.619	0.274667
-310.076	0.222556
-310.534	0.283111
-310.991	0.257333
-311.449	0.282111
-311.906	0.235
-312.364	0.238333
-312.821	0.225
-313.279	0.297556
-313.737	0.263333
-314.194	0.229333
-314.652	0.221556
-315.11	0.248778
-315.567	0.318778
-316.025	0.249222
-316.483	0.259222
-316.94	0.248444
-317.398	0.265333
-317.856	0.252556
-318.314	0.267889
-318.772	0.326444
-319.23	0.282
-319.687	0.270111
-320.145	0.323556
-320.603	0.279333
-321.061	0.275333
-321.519	0.299667
-321.977	0.269556
-322.435	0.256222
-322.893	0.251444
-323.351	0.213111
-323.81	0.213
-324.268	0.229333
-324.726	0.213
-325.184	0.210667
-325.642	0.248778
-326.1	0.266889
-326.559	0.241333
-327.017	0.204667
-327.475	0.315222
-327.933	0.270444
-328.392	0.258889
-328.85	0.233889
-329.308	0.235
-329.767	0.206556
-330.225	0.169222
-330.684	0.231778
-331.142	0.200333
-331.6	0.258778
-332.059	0.197333
-332.517	0.183778
-332.976	0.231111
-333.434	0.207
-333.893	0.188444
-334.352	0.181556
-334.81	0.133
-335.269	0.191556
-335.728	0.170778
-336.186	0.209444
-336.645	0.182667
-337.104	0.168333
-337.562	0.173556
-338.021	0.21
-338.48	0.169778
-338.939	0.175
-339.398	0.132889
-339.857	0.131667
-340.315	0.156444
-340.774	0.103667
-341.233	0.113556
-341.692	0.154
-342.151	0.152
-342.61	0.163556
-343.069	0.144556
-343.528	0.176111
-343.987	0.0972222
-344.446	0.112556
-344.905	0.163778
-345.365	0.104667
-345.824	0.132111
-346.283	0.127667
-346.742	0.104222
-347.201	0.130111
-347.66	0.102889
-348.12	0.160333
-348.579	0.139
-349.038	0.215889
-349.498	0.207889
-349.957	0.131667
-350.416	0.148111
-350.876	0.166222
-351.335	0.122556
-351.795	0.109556
-352.254	0.0867778
-352.714	0.0893333
-353.173	0.0823333
-353.633	0.133111
-354.092	0.113556
-354.552	0.0957778
-355.011	0.114778
-355.471	0.0693333
-355.93	0.118333
-356.39	0.0622222
-356.85	0.0824444
-357.309	0.089
-357.769	0.148889
-358.229	0.089
-358.689	0.0544444
-359.148	0.096
-359.608	0.109
-360.068	0.128444
-360.528	0.0975556
-360.988	0.131778
-361.448	0.148667
-361.908	0.17
-362.368	0.0652222
-362.828	0.109889
-363.287	0.148222
-363.747	0.116444
-364.208	0.141667
-364.668	0.0888889
-365.128	0.109444
-365.588	0.073
-366.048	0.0904444
-366.508	0.0684444
-366.968	0.143778
-367.428	0.0782222
-367.889	0.149
-368.349	0.0933333
-368.809	0.0516667
-369.269	0.084
-369.73	0.0911111
-370.19	0.0383333
-370.65	0.0888889
-371.111	0.107444
-371.571	0.0765556
-372.031	0.100889
-372.492	0.0811111
-372.952	0.0841111
-373.413	0.0754444
-373.873	0.0878889
-374.334	0.0927778
-374.794	0.0768889
-375.255	0.0814444
-375.715	0.0663333
-376.176	0.165333
-376.637	0.0991111
-377.097	0.0883333
-377.558	0.0945556
-378.019	0.0977778
-378.479	0.0833333
-378.94	0.0716667
-379.401	0.0831111
-379.861	0.08
-380.322	0.122333
-380.783	0.102889
-381.244	0.0537778
-381.705	0.0343333
-382.166	0.0773333
-382.627	0.0987778
-383.088	0.0393333
-383.548	0.106667
-384.009	0.0501111
-384.47	0.117333
-384.931	0.0813333
-385.393	0.155556
-385.854	0.0432222
-386.315	0.0606667
-386.776	0.101111
-387.237	0.111778
-387.698	0.101111
-388.159	0.137444
-388.62	0.0721111
-389.082	0.0858889
-389.543	0.111444
-390.004	0.134778
-390.465	0.129333
-390.927	0.112333
-391.388	0.122111
-391.849	0.0828889
-392.311	0.0712222
-392.772	0.0876667
-393.234	0.0923333
-393.695	0.0802222
-394.156	0.0705556
-394.618	0.0696667
-395.079	0.0521111
-395.541	0.0402222
-396.003	0.0812222
-396.464	0.0345556
-396.926	0.113222
-397.387	0.0986667
-397.849	0.119444
-398.311	0.107889
-398.772	0.116667
-399.234	0.0496667
-399.696	0.0965556
-400.158	0.0896667
-400.619	0.0624444
-401.081	0.0554444
-401.543	0.0855556
-402.005	0.125667
-402.467	0.138
-402.928	0.094
-403.39	0.102444
-403.852	0.0548889
-404.314	0.0982222
-404.776	0.0283333
-405.238	0.0395556
-405.7	0.0604444
-406.162	0.111889
-406.624	0.089
-407.086	0.0805556
-407.548	0.0666667
-408.011	0.0408889
-408.473	0.0884444
-408.935	0.0521111
-409.397	0.0484444
-409.859	0.119333
-410.322	0.115
-410.784	0.119444
-411.246	0.102889
-411.708	0.0558889
-412.171	0.0902222
-412.633	0.0785556
-413.095	0.0794444
-413.558	0.123111
-414.02	0.0743333
-414.483	0.073
-414.945	0.071
-415.408	0.109222
-415.87	0.0373333
-416.333	0.0807778
-416.795	0.109444
-417.258	0.0964444
-417.72	0.102111
-418.183	0.0954444
-418.646	0.0998889
-419.108	0.0941111
-419.571	0.0343333
-420.034	0.142667
-420.496	0.0596667
-420.959	0.0456667
-421.422	0.0751111
-421.885	0.106222
-422.348	0.0777778
-422.81	0.082
-423.273	0.110111
-423.736	0.0297778
-424.199	0.0885556
-424.662	0.0922222
-425.125	0.0535556
-425.588	0.0673333
-426.051	0.117
-426.514	0.0743333
-426.977	0.0896667
-427.44	0.074
-427.903	-0.00411111
-428.366	0.109889
-428.829	0.0816667
-429.292	0.0367778
-429.756	0.0478889
-430.219	0.0782222
-430.682	-0.000444444
-431.145	0.0734444
-431.609	0.0956667
-432.072	0.0643333
-432.535	0.0875556
-432.998	0.0516667
-433.462	0.0916667
-433.925	0.0298889
-434.389	0.0783333
-434.852	-0.00444444
-435.315	0.046
-435.779	0.0654444
-436.242	-0.00144444
-436.706	0.0767778
-437.169	0.00611111
-437.633	0.0645556
-438.096	0.0585556
-438.56	0.00411111
-439.024	0.0786667
-439.487	0.101111
-439.951	0.0812222
-440.415	0.0657778
-440.878	0.0856667
-441.342	0.0974444
-441.806	0.0985556
-442.27	0.0371111
-442.733	0.0402222
-443.197	0.0668889
-443.661	0.0848889
-444.125	0.0874444
-444.589	0.0607778
-445.053	0.0242222
-445.517	0.0766667
-445.981	0.0823333
-446.445	0.0252222
-446.909	0.0843333
-447.373	0.119667
-447.837	0.053
-448.301	0.0482222
-448.765	0.0294444
-449.229	0.0247778
-449.693	0.0294444
-450.157	0.0733333
-450.621	0.103556
-451.086	0.108667
-451.55	0.0588889
-452.014	0.109556
-452.478	0.0586667
-452.943	0.0422222
-453.407	0.0164444
-453.871	0.0292222
-454.336	0.0368889
-454.8	0.0187778
-455.264	0.0986667
-455.729	0.0496667
-456.193	0.0116667
-456.658	0.0635556
-457.122	0.067
-457.587	0.0514444
-458.051	0.0503333
-458.516	0.0257778
-458.98	0.049
-459.445	0.0537778
-459.91	0.057
-460.374	0.0185556
-460.839	0.0496667
-461.304	0.00711111
-461.768	0.0203333
-462.233	-0.0106667
-462.698	0.0622222
-463.163	0.03
-463.627	0.0317778
-464.092	0.0501111
-464.557	0.0376667
-465.022	0.0216667
-465.487	0.0538889
-465.952	0.0227778
-466.417	0.0808889
-466.882	-0.0145556
-467.347	-0.00933333
-467.812	0.00188889
-468.277	0.00177778
-468.742	0.0452222
-469.207	0.00433333
-469.672	0.0421111
-470.137	0.00766667
-470.602	0.0346667
-471.067	0.0893333
-471.532	0.042
-471.998	0.0458889
-472.463	0.0517778
-472.928	0.0656667
-473.393	0.0278889
-473.859	-0.0234444
-474.324	0.0293333
-474.789	-0.0661111
-475.255	-0.039
-475.72	0.0215556
-476.185	0.0155556
-476.651	0.0192222
-477.116	0.0141111
-477.582	0.0275556
-478.047	0.0251111
-478.513	-0.0236667
-478.978	0.0221111
-479.444	0.0306667
-479.909	0.104556
-480.375	0.0465556
-480.841	-0.0153333
-481.306	0.0283333
-481.772	0.0273333
-482.238	0.0222222
-482.703	0.0884444
-483.169	0.0745556
-483.635	0.0704444
-484.101	0.0847778
-484.567	0.108778
-485.032	0.114556
-485.498	0.0981111
-485.964	0.101111
-486.43	0.103556
-486.896	0.127
-487.362	0.0793333
-487.828	0.128
-488.294	0.120889
-488.76	0.059
-489.226	0.0626667
-489.692	0.0841111
-490.158	0.100778
-490.624	0.0948889
-491.09	0.0726667
-491.556	0.0375556
-492.023	0.0614444
-492.489	0.103111
-492.955	0.0277778
-493.421	0.112444
-493.887	0.0764444
-494.354	0.0717778
-494.82	0.0296667
-495.286	0.0796667
-495.753	0.0506667
-496.219	0.0564444
-496.685	0.0741111
-497.152	0.0902222
-497.618	0.115111
-498.085	0.0905556
-498.551	0.133333
-499.018	0.0908889
-499.484	0.0791111
-499.951	0.106333
-500.417	0.111333
-500.884	0.0782222
-501.351	0.093
-501.817	0.184444
-502.284	0.124556
-502.751	0.0946667
-503.217	0.132444
-503.684	0.0922222
-504.151	0.123444
-504.618	0.141444
-505.084	0.146111
-505.551	0.19
-506.018	0.161667
-506.485	0.185667
-506.952	0.244222
-507.419	0.330222
-507.886	0.283333
-508.353	0.286444
-508.82	0.285333
-509.287	0.363778
-509.754	0.348889
-510.221	0.434556
-510.688	0.484444
-511.155	0.526
-511.622	0.498111
-512.089	0.671556
-512.556	0.728222
-513.023	0.911556
-513.491	1.02822
-513.958	1.18933
-514.425	1.44311
-514.892	1.94533
-515.36	2.44333
-515.827	3.12622
-516.294	4.04833
-516.762	4.98222
-517.229	5.98967
-517.696	6.72444
-518.164	7.44056
-518.631	7.90511
-519.099	8.21289
-519.566	8.19078
-520.034	7.95356
-520.501	7.393
-520.969	6.76111
-521.437	5.90889
-521.904	5.14467
-522.372	4.42333
-522.839	3.864
-523.307	3.21489
-523.775	2.74967
-524.243	2.27711
-524.71	1.89667
-525.178	1.60589
-525.646	1.32533
-526.114	1.10878
-526.582	0.906778
-527.049	0.769111
-527.517	0.650778
-527.985	0.505444
-528.453	0.508778
-528.921	0.428
-529.389	0.349111
-529.857	0.274889
-530.325	0.310111
-530.793	0.292
-531.261	0.260444
-531.729	0.236556
-532.197	0.219556
-532.665	0.246889
-533.134	0.292111
-533.602	0.211889
-534.07	0.230667
-534.538	0.185222
-535.006	0.209444
-535.475	0.157222
-535.943	0.168
-536.411	0.191111
-536.88	0.173667
-537.348	0.179222
-537.816	0.126889
-538.285	0.133111
-538.753	0.101444
-539.222	0.190444
-539.69	0.0934444
-540.159	0.152111
-540.627	0.103333
-541.096	0.105667
-541.564	0.0423333
-542.033	0.0787778
-542.501	0.0865556
-542.97	0.0526667
-543.439	0.05
-543.907	0.0602222
-544.376	0.0364444
-544.845	0.0626667
-545.314	0.0778889
-545.782	0.129889
-546.251	0.0964444
-546.72	0.0827778
-547.189	0.0616667
-547.658	0.103
-548.126	0.107556
-548.595	0.0927778
-549.064	0.0808889
-549.533	0.0623333
-550.002	0.089
-550.471	0.0834444
-550.94	0.0251111
-551.409	0.0494444
-551.878	0.0535556
-552.347	0.0574444
-552.817	0.07
-553.286	0.0586667
-553.755	0.0675556
-554.224	0.0524444
-554.693	0.0634444
-555.162	0.0422222
-555.632	0.0302222
-556.101	0.00544444
-556.57	0.00422222
-557.039	0.0181111
-557.509	0.053
-557.978	0.0576667
-558.448	0.0891111
-558.917	0.0411111
-559.386	0.0315556
-559.856	0.0711111
-560.325	0.0432222
-560.795	-0.0162222
-561.264	0.0915556
-561.734	0.0916667
-562.203	0.0153333
-562.673	0.0464444
-563.143	0.0678889
-563.612	0.0705556
-564.082	0.0581111
-564.552	0.0536667
-565.021	0.117778
-565.491	0.0655556
-565.961	0.0601111
-566.43	0.0227778
-566.9	0.047
-567.37	-0.0157778
-567.84	-0.00322222
-568.31	0.00744444
-568.78	0.0145556
-569.25	0.0175556
-569.719	0.0164444
-570.189	0.0213333
-570.659	-0.00855556
-571.129	0.0295556
-571.599	0.02
-572.069	0.00133333
-572.539	-0.031
-573.01	-0.0112222
-573.48	0.022
-573.95	0.0184444
-574.42	0.0413333
-574.89	0.0968889
-575.36	0.0
-575.831	0.0116667
-576.301	0.0134444
-576.771	0.0174444
-577.241	0.0621111
-577.712	0.0611111
-578.182	0.0596667
-578.652	0.0281111
-579.123	0.074
-579.593	0.0922222
-580.064	0.0307778
-580.534	0.0547778
-581.004	0.0608889
-581.475	0.0515556
-581.945	-0.023
-582.416	0.0222222
-582.887	-0.0254444
-583.357	0.0524444
-583.828	0.0138889
-584.298	0.046
-584.769	0.0464444
-585.24	0.0272222
-585.71	0.0365556
-586.181	0.0364444
-586.652	0.0714444
-587.123	0.0605556
-587.593	0.0502222
-588.064	0.0148889
-588.535	0.0558889
-589.006	0.0331111
-589.477	0.0998889
-589.948	0.105444
-590.419	0.0185556
-590.89	0.0943333
-591.361	0.0653333
-591.832	0.0521111
-592.303	0.103556
-592.774	0.0874444
-593.245	0.0605556
-593.716	0.0346667
-594.187	0.0373333
-594.658	0.012
-595.129	0.0476667
-595.6	0.0286667
-596.072	0.00366667
-596.543	0.0185556
-597.014	0.103667
-597.485	0.0467778
-597.957	0.0334444
-598.428	0.0473333
-598.899	0.043
-599.371	0.0603333
-599.842	0.0493333
-600.313	0.0601111
-600.785	0.0661111
-601.256	0.0353333
-601.728	0.0565556
-602.199	0.0638889
-602.671	0.048
-603.142	0.0381111
-603.614	0.0756667
-604.085	0.0232222
-604.557	0.0383333
-605.029	0.0444444
-605.5	0.0462222
-605.972	0.023
-606.444	0.0761111
-606.915	0.0444444
-607.387	0.0281111
-607.859	0.0522222
-608.331	0.0536667
-608.803	0.0587778
-609.274	0.0268889
-609.746	0.0387778
-610.218	0.0966667
-610.69	0.0332222
-611.162	0.0824444
-611.634	0.0726667
-612.106	0.0175556
-612.578	0.0748889
-613.05	0.0708889
-613.522	0.0368889
-613.994	0.0162222
-614.466	0.0387778
-614.938	0.0711111
-615.41	0.0532222
-615.883	0.0721111
-616.355	0.0867778
-616.827	0.0786667
-617.299	0.0407778
-617.771	0.069
-618.244	0.0347778
-618.716	0.0453333
-619.188	0.0868889
-619.661	0.0845556
-620.133	0.085
-620.605	0.121444
-621.078	0.0702222
-621.55	0.0384444
-622.023	0.0648889
-622.495	0.0692222
-622.968	0.0452222
-623.44	0.0428889
-623.913	0.0364444
-624.385	0.000777778
-624.858	0.115889
-625.331	0.0837778
-625.803	0.076
-626.276	0.06
-626.749	0.0815556
-627.221	0.0667778
-627.694	0.101444
-628.167	0.0144444
-628.64	0.0754444
-629.112	0.0367778
-629.585	0.0942222
-630.058	0.112889
-630.531	0.0536667
-631.004	0.0426667
-631.477	0.0428889
-631.95	0.0805556
-632.423	0.0527778
-632.896	-0.0446667
-633.369	0.0882222
-633.842	0.0565556
-634.315	0.0663333
-634.788	-0.00244444
-635.261	0.0634444
-635.734	0.078
-636.207	-0.00466667
-636.68	0.0664444
-637.154	0.0287778
-637.627	0.00977778
-638.1	0.0811111
-638.573	0.0208889
-639.047	-0.00288889
-639.52	0.104778
-639.993	0.0471111
-640.467	0.0307778
-640.94	0.00777778
-641.413	0.0561111
-641.887	0.0454444
-642.36	0.00955556
-642.834	0.0134444
-643.307	0.0341111
-643.781	-0.0135556
-644.254	-0.0304444
-644.728	0.018
-645.201	0.029
-645.675	0.0151111
-646.149	0.0358889
-646.622	0.0155556
-647.096	0.0551111
-647.57	0.0397778
-648.043	0.0238889
-648.517	0.0352222
-648.991	0.0593333
-649.465	0.0107778
-649.939	0.00733333
-650.412	0.0428889
-650.886	0.0613333
-651.36	0.0115556
-651.834	0.0934444
-652.308	0.0792222
-652.782	0.0411111
-653.256	0.00333333
-653.73	0.0247778
-654.204	0.024
-654.678	0.012
-655.152	0.0158889
-655.626	-0.0268889
-656.1	0.0253333
-656.574	-0.0106667
-657.049	0.00922222
-657.523	0.0126667
-657.997	-0.0367778
-658.471	0.0113333
-658.945	0.0327778
-659.42	0.00988889
-659.894	0.0576667
-660.368	0.02
-660.843	-0.0292222
-661.317	-0.004
-661.791	-0.00577778
-662.266	-0.00111111
-662.74	0.0192222
-663.215	-0.00311111
-663.689	0.0265556
-664.164	-0.0342222
-664.638	-0.00744444
-665.113	0.0172222
-665.587	0.0228889
-666.062	0.00611111
-666.537	0.0107778
-667.011	0.0325556
-667.486	0.0608889
-667.961	0.0427778
-668.435	0.0513333
-668.91	0.0198889
-669.385	0.0616667
-669.86	0.0285556
-670.334	0.0141111
-670.809	0.0126667
-671.284	0.025
-671.759	0.0142222
-672.234	-0.034
-672.709	0.00844444
-673.184	0.0201111
-673.659	0.00566667
-674.134	0.0156667
-674.609	0.0443333
-675.084	0.0144444
-675.559	-0.00133333
-676.034	0.0247778
-676.509	-0.0266667
-676.984	0.0638889
-677.459	0.0166667
-677.935	0.0495556
-678.41	-0.015
-678.885	-0.0115556
-679.36	-0.012
-679.835	-0.0348889
-680.311	-0.00322222
-680.786	0.0221111
-681.261	-0.0331111
-681.737	-0.00155556
-682.212	0.0216667
-682.688	-0.00122222
-683.163	0.0495556
-683.638	-0.0463333
-684.114	-0.00422222
-684.589	-0.0455556
-685.065	0.0148889
-685.54	0.049
-686.016	-0.00344444
-686.492	-0.0197778
-686.967	-0.008
-687.443	-0.00311111
-687.919	0.00577778
-688.394	-0.00144444
-688.87	0.0673333
-689.346	-0.0107778
-689.821	0.0178889
-690.297	-0.00288889
-690.773	0.0155556
-691.249	0.0252222
-691.725	0.0705556
-692.201	0.0116667
-692.677	0.0493333
-693.152	0.0548889
-693.628	0.0641111
-694.104	0.0302222
-694.58	0.0596667
-695.056	0.018
-695.532	0.0154444
-696.008	0.0283333
-696.485	-0.0253333
-696.961	-0.0397778
-697.437	0.02
-697.913	0.00855556
-698.389	0.0342222
-698.865	-0.0122222
-699.341	0.0642222
-699.818	0.0413333
-700.294	0.00122222
-700.77	0.000555556
-701.247	0.000222222
-701.723	0.0167778
-702.199	0.00911111
-702.676	0.0483333
-703.152	0.0226667
-703.629	0.0316667
-704.105	0.0412222
-704.581	-0.0148889
-705.058	0.000555556
-705.534	0.0364444
-706.011	0.00277778
-706.488	-0.0892222
-706.964	0.0255556
-707.441	-0.0418889
-707.917	0.01
-708.394	-0.00855556
-708.871	0.0153333
-709.347	0.0101111
-709.824	-0.00544444
-710.301	-0.0216667
-710.778	0.0355556
-711.255	-0.000222222
-711.731	-0.0305556
-712.208	-0.0353333
-712.685	-0.00233333
-713.162	0.00588889
-713.639	-0.0344444
-714.116	-0.0262222
-714.593	0.0227778
-715.07	-0.0407778
-715.547	0.0241111
-716.024	0.0446667
-716.501	-0.0201111
-716.978	-0.0268889
-717.455	-0.000222222
-717.932	-0.0776667
-718.409	-0.00511111
-718.887	-0.0441111
-719.364	-0.00833333
-719.841	-0.0177778
-720.318	0.0257778
-720.795	0.0492222
-721.273	0.0155556
-721.75	0.0291111
-722.227	0.0773333
-722.705	0.000222222
-723.182	0.0238889
-723.66	0.00666667
-724.137	-0.0214444
-724.614	-0.0397778
-725.092	-0.018
-725.569	-0.0241111
-726.047	-0.0186667
-726.525	0.006
-727.002	-0.0323333
-727.48	-0.00811111
-727.957	-0.0237778
-728.435	0.00511111
-728.913	0.0513333
-729.39	0.0863333
-729.868	-0.0178889
-730.346	0.0554444
-730.823	0.0302222
-731.301	-0.0377778
-731.779	-0.00188889
-732.257	-0.0724444
-732.735	-0.00688889
-733.213	0.0173333
-733.691	0.0247778
-734.168	0.0106667
-734.646	-0.011
-735.124	0.036
-735.602	0.0767778
-736.08	0.00377778
-736.558	0.0233333
-737.036	-0.00322222
-737.515	0.019
-737.993	0.0413333
-738.471	-0.0113333
-738.949	0.00788889
-739.427	0.0278889
-739.905	-0.0114444
-740.384	-0.0428889
-740.862	-0.0323333
-741.34	-0.0525556
-741.818	-0.00488889
-742.297	0.0301111
-742.775	-0.0102222
-743.253	0.0256667
-743.732	-0.0225556
-744.21	0.00666667
-744.689	-0.00155556
-745.167	0.0146667
-745.646	0.0315556
-746.124	-0.0107778
-746.603	-0.00522222
-747.081	0.000444444
-747.56	0.00622222
-748.038	0.022
-748.517	0.00422222
-748.996	-0.00633333
-749.474	0.0471111
-749.953	-0.00433333
-750.432	-0.00988889
-750.91	0.00922222
-751.389	0.0238889
-751.868	0.00844444
-752.347	-0.0236667
-752.826	-0.00788889
-753.304	0.0218889
-753.783	0.0108889
-754.262	0.019
-754.741	-0.0254444
-755.22	0.0635556
-755.699	0.0378889
-756.178	0.0224444
-756.657	-0.00122222
-757.136	-0.0165556
-757.615	-0.0194444
-758.094	0.0888889
-758.573	0.0375556
-759.052	-0.0307778
-759.532	-0.0163333
-760.011	0.0365556
-760.49	0.004
-760.969	-0.0113333
-761.448	0.043
-761.928	0.00788889
-762.407	0.0123333
-762.886	0.0183333
-763.366	0.0154444
-763.845	0.003
-764.325	0.0463333
-764.804	0.0153333
-765.283	0.0334444
-765.763	0.0756667
-766.242	0.0
-766.722	-0.00922222
-767.201	0.00377778
-767.681	-0.0208889
-768.161	0.0333333
-768.64	-0.0123333
-769.12	0.00833333
-769.599	0.0468889
-770.079	0.0344444
-770.559	-0.00533333
-771.038	-0.0468889
-771.518	-0.048
-771.998	0.0426667
-772.478	-0.00288889
-772.958	0.0148889
-773.437	0.000777778
-773.917	-0.00455556
-774.397	-0.0215556
-774.877	0.0108889
-775.357	0.00777778
-775.837	0.0563333
-776.317	0.0433333
-776.797	0.0376667
-777.277	-0.0314444
-777.757	0.00633333
-778.237	-0.000222222
-778.717	-0.0202222
-779.197	0.0127778
-779.677	0.0635556
-780.158	-0.00311111
-780.638	0.0104444
-781.118	0.0335556
-781.598	0.0233333
-782.079	0.0818889
-782.559	-0.0227778
-783.039	0.00666667
-783.52	0.01
-784	0.0305556
-784.48	0.0475556
-784.961	0.0608889
-785.441	-0.0143333
-785.922	0.0681111
-786.402	0.0668889
-786.882	0.0171111
-787.363	0.011
-787.844	0.0297778
-788.324	0.0503333
-788.805	0.0444444
-789.285	-0.0418889
-789.766	0.0227778
-790.247	-0.0333333
-790.727	0.0386667
-791.208	0.00122222
-791.689	-0.0317778
-792.17	0.00388889
-792.65	-0.021
-793.131	-0.00211111
-793.612	-0.0378889
-794.093	-0.046
-794.574	0.0342222
-795.055	0.0177778
-795.535	0.0118889
-796.016	0.0331111
-796.497	0.003
-796.978	0.0647778
-797.459	0.082
-797.94	0.0186667
-798.421	0.0368889
-798.903	0.0252222
-799.384	0.0395556
-799.865	0.00511111
-800.346	0.00511111
-800.827	0.0565556
-801.308	0.0276667
-801.79	0.0453333
-802.271	-0.0542222
-802.752	-0.036
-803.233	-0.0462222
-803.715	0.0144444
-804.196	-0.00155556
-804.677	-0.0626667
-805.159	0.0296667
-805.64	-0.0114444
-806.122	0.0171111
-806.603	-0.006
-807.085	0.0441111
-807.566	-0.0266667
-808.048	0.0265556
-808.529	-0.021
-809.011	-0.00677778
-809.492	-0.0422222
-809.974	0.0271111
-810.456	-0.0276667
-810.937	-0.0167778
-811.419	-0.00655556
-811.901	0.00122222
-812.383	0.00666667
-812.864	0.00166667
-813.346	-0.00766667
-813.828	-0.0163333
-814.31	0.0123333
-814.792	0.0577778
-815.274	0.0756667
-815.755	0.0708889
-816.237	-0.0285556
-816.719	0.0526667
-817.201	0.02
-817.683	0.0495556
-818.165	0.0358889
-818.647	0.00433333
-819.13	0.02
-819.612	0.0461111