File: tomke/20240809_Si_on_TiO2/20240809/corrected Raman data export/AS_40mA.txt
-194.586	-0.263742
-195.038	-0.332729
-195.49	-0.241703
-195.942	-0.237191
-196.394	-0.243568
-196.846	-0.204292
-197.298	-0.200741
-197.75	-0.232802
-198.202	-0.302507
-198.654	-0.375518
-199.106	-0.240295
-199.558	-0.232124
-200.011	-0.233801
-200.463	-0.29045
-200.915	-0.289525
-201.367	-0.359084
-201.82	-0.27248
-202.272	-0.276224
-202.724	-0.288875
-203.177	-0.314064
-203.629	-0.33342
-204.081	-0.3111
-204.534	-0.325429
-204.986	-0.285124
-205.439	-0.328537
-205.891	-0.337452
-206.344	-0.301708
-206.796	-0.200132
-207.249	-0.236101
-207.701	-0.323189
-208.154	-0.213548
-208.606	-0.206873
-209.059	-0.269184
-209.512	-0.229102
-209.964	-0.282507
-210.417	-0.313061
-210.87	-0.344512
-211.322	-0.33686
-211.775	-0.318071
-212.228	-0.257184
-212.681	-0.169074
-213.133	-0.19824
-213.586	-0.26374
-214.039	-0.345908
-214.492	-0.278722
-214.945	-0.221033
-215.398	-0.329778
-215.851	-0.346203
-216.304	-0.208236
-216.757	-0.253719
-217.21	-0.264679
-217.663	-0.316229
-218.116	-0.346633
-218.569	-0.249008
-219.022	-0.22486
-219.475	-0.282388
-219.928	-0.173893
-220.381	-0.263033
-220.835	-0.220318
-221.288	-0.179556
-221.741	-0.195422
-222.194	-0.245234
-222.648	-0.367276
-223.101	-0.186702
-223.554	-0.273888
-224.008	-0.179929
-224.461	-0.221317
-224.914	-0.319131
-225.368	-0.256711
-225.821	-0.262364
-226.275	-0.298224
-226.728	-0.252498
-227.181	-0.236503
-227.635	-0.323806
-228.088	-0.262158
-228.542	-0.232391
-228.996	-0.307705
-229.449	-0.297696
-229.903	-0.275778
-230.356	-0.364316
-230.81	-0.364503
-231.264	-0.379988
-231.717	-0.278992
-232.171	-0.347701
-232.625	-0.334018
-233.079	-0.354745
-233.532	-0.283015
-233.986	-0.321931
-234.44	-0.269746
-234.894	-0.313332
-235.348	-0.278852
-235.802	-0.295849
-236.256	-0.228315
-236.71	-0.225895
-237.164	-0.281289
-237.618	-0.281378
-238.072	-0.27342
-238.526	-0.248652
-238.98	-0.29219
-239.434	-0.275308
-239.888	-0.263417
-240.342	-0.286508
-240.796	-0.216859
-241.25	-0.34046
-241.704	-0.272548
-242.159	-0.325765
-242.613	-0.241662
-243.067	-0.299538
-243.521	-0.18435
-243.976	-0.277047
-244.43	-0.251527
-244.884	-0.269977
-245.339	-0.23634
-245.793	-0.210596
-246.247	-0.23573
-246.702	-0.32392
-247.156	-0.352836
-247.611	-0.261257
-248.065	-0.257932
-248.52	-0.235406
-248.974	-0.256185
-249.429	-0.198425
-249.883	-0.161104
-250.338	-0.243084
-250.792	-0.197052
-251.247	-0.262231
-251.702	-0.297947
-252.156	-0.279129
-252.611	-0.335964
-253.066	-0.242972
-253.52	-0.186082
-253.975	-0.281924
-254.43	-0.315266
-254.885	-0.141278
-255.34	-0.269369
-255.794	-0.13366
-256.249	-0.228194
-256.704	-0.184036
-257.159	-0.18477
-257.614	-0.151785
-258.069	-0.212411
-258.524	-0.0352782
-258.979	0.0152071
-259.434	-0.196978
-259.889	-0.150686
-260.344	-0.100668
-260.799	-0.145351
-261.254	-0.104955
-261.709	-0.0229636
-262.165	-0.112871
-262.62	-0.106238
-263.075	-0.101819
-263.53	0.027376
-263.985	-0.0305067
-264.441	0.0224338
-264.896	-0.00597689
-265.351	-0.094416
-265.807	0.0881956
-266.262	0.107948
-266.717	0.210713
-267.173	0.0360942
-267.628	0.177577
-268.084	0.176587
-268.539	0.293552
-268.994	0.283054
-269.45	0.277531
-269.905	0.263038
-270.361	0.404692
-270.817	0.431195
-271.272	0.509184
-271.728	0.54659
-272.183	0.582743
-272.639	0.595296
-273.095	0.678222
-273.55	0.754958
-274.006	0.774821
-274.462	0.785319
-274.918	0.924203
-275.373	0.826674
-275.829	0.91814
-276.285	0.95734
-276.741	1.07536
-277.197	1.02338
-277.653	1.22095
-278.109	1.18494
-278.564	1.13088
-279.02	1.00592
-279.476	1.19374
-279.932	1.26981
-280.388	1.47961
-280.844	1.41062
-281.3	1.36571
-281.757	1.52844
-282.213	1.5274
-282.669	1.64103
-283.125	1.57425
-283.581	1.72383
-284.037	1.82557
-284.494	1.82408
-284.95	1.75624
-285.406	1.86783
-285.862	1.79494
-286.319	1.81267
-286.775	1.90282
-287.231	1.9032
-287.688	1.87539
-288.144	1.90675
-288.6	2.01334
-289.057	2.04456
-289.513	1.83541
-289.97	1.84727
-290.426	2.03375
-290.883	2.0535
-291.339	2.07247
-291.796	2.20159
-292.252	2.15615
-292.709	2.10362
-293.166	2.09361
-293.622	2.22568
-294.079	2.05955
-294.536	1.97279
-294.992	1.9671
-295.449	1.97503
-295.906	2.12402
-296.363	2.03138
-296.82	1.99957
-297.276	1.91316
-297.733	1.96355
-298.19	2.04922
-298.647	1.91085
-299.104	2.07716
-299.561	1.85511
-300.018	1.85445
-300.475	1.86746
-300.932	1.86108
-301.389	1.72698
-301.846	1.89087
-302.303	1.72609
-302.76	1.70127
-303.217	1.73098
-303.674	1.64094
-304.131	1.56521
-304.589	1.61456
-305.046	1.72747
-305.503	1.77131
-305.96	1.61447
-306.417	1.62458
-306.875	1.75838
-307.332	1.55851
-307.789	1.52447
-308.247	1.58021
-308.704	1.58916
-309.161	1.4032
-309.619	1.3792
-310.076	1.43046
-310.534	1.28267
-310.991	1.48641
-311.449	1.45974
-311.906	1.39836
-312.364	1.52197
-312.821	1.39507
-313.279	1.35615
-313.737	1.43778
-314.194	1.44236
-314.652	1.43212
-315.11	1.52043
-315.567	1.49859
-316.025	1.44484
-316.483	1.47767
-316.94	1.46784
-317.398	1.32043
-317.856	1.47266
-318.314	1.55895
-318.772	1.56918
-319.23	1.35224
-319.687	1.31024
-320.145	1.27644
-320.603	1.36698
-321.061	1.18934
-321.519	1.36041
-321.977	1.55847
-322.435	1.30591
-322.893	1.2981
-323.351	1.3644
-323.81	1.25519
-324.268	1.21927
-324.726	1.37485
-325.184	1.32564
-325.642	1.36337
-326.1	1.16718
-326.559	1.32501
-327.017	1.33292
-327.475	1.24441
-327.933	1.42558
-328.392	1.20207
-328.85	1.30403
-329.308	1.3587
-329.767	1.22334
-330.225	1.24168
-330.684	1.320016
-331.142	1.32334
-331.6	1.31686
-332.059	1.01388
-332.517	1.24718
-332.976	1.22955
-333.434	1.21002
-333.893	1.25365
-334.352	1.13924
-334.81	1.05093
-335.269	1.16459
-335.728	1.13141
-336.186	1.29207
-336.645	1.11119
-337.104	1.10381
-337.562	1.11737
-338.021	1.00223
-338.48	1.0375
-338.939	1.14567
-339.398	1.05029
-339.857	1.02997
-340.315	1.16961
-340.774	1.04341
-341.233	1.03446
-341.692	1.23347
-342.151	1.06349
-342.61	1.15567
-343.069	1.0953
-343.528	1.17403
-343.987	1.04548
-344.446	1.05985
-344.905	1.13798
-345.365	1.12228
-345.824	0.988478
-346.283	1.08834
-346.742	0.99104
-347.201	0.982555
-347.66	1.09312
-348.12	0.994891
-348.579	1.03934
-349.038	0.963143
-349.498	1.01437
-349.957	0.967593
-350.416	1.01097
-350.876	1.26604
-351.335	1.06577
-351.795	0.935826
-352.254	1.06799
-352.714	1.16223
-353.173	1.05119
-353.633	1.13367
-354.092	1.08927
-354.552	1.10576
-355.011	1.05264
-355.471	0.917173
-355.93	0.964092
-356.39	0.926567
-356.85	0.847132
-357.309	0.817714
-357.769	0.786567
-358.229	0.952848
-358.689	0.939147
-359.148	0.801744
-359.608	1.02584
-360.068	0.857755
-360.528	1.02
-360.988	0.923557
-361.448	0.937456
-361.908	1.03002
-362.368	0.989641
-362.828	0.900492
-363.287	0.912389
-363.747	0.91341
-364.208	1.04702
-364.668	0.913883
-365.128	0.96182
-365.588	1.03822
-366.048	0.955628
-366.508	0.858185
-366.968	0.845362
-367.428	0.834645
-367.889	0.872379
-368.349	0.917252
-368.809	0.824644
-369.269	0.852548
-369.73	0.872967
-370.19	0.7869
-370.65	0.809643
-371.111	0.678843
-371.571	0.914395
-372.031	0.734208
-372.492	0.906699
-372.952	0.893508
-373.413	0.776976
-373.873	0.872676
-374.334	0.724725
-374.794	0.809061
-375.255	0.755908
-375.715	0.8164
-376.176	0.867296
-376.637	0.762062
-377.097	0.649733
-377.558	0.864114
-378.019	0.813486
-378.479	0.766516
-378.94	0.78554
-379.401	0.728818
-379.861	0.708217
-380.322	0.807561
-380.783	0.70531
-381.244	0.756124
-381.705	0.799179
-382.166	0.678453
-382.627	0.90496
-383.088	0.71582
-383.548	0.727012
-384.009	0.82176
-384.47	0.834411
-384.931	0.935378
-385.393	0.812231
-385.854	0.892786
-386.315	0.879273
-386.776	0.874999
-387.237	0.87171
-387.698	0.868754
-388.159	0.787483
-388.62	0.853836
-389.082	0.747769
-389.543	0.763243
-390.004	0.82136
-390.465	0.906251
-390.927	0.78616
-391.388	0.823982
-391.849	0.874404
-392.311	0.815595
-392.772	0.759493
-393.234	0.734395
-393.695	0.765022
-394.156	0.672172
-394.618	0.765854
-395.079	0.851694
-395.541	0.683684
-396.003	0.866316
-396.464	0.902937
-396.926	0.839211
-397.387	0.80061
-397.849	0.757465
-398.311	0.666032
-398.772	0.766857
-399.234	0.740162
-399.696	0.615163
-400.158	0.77682
-400.619	0.826926
-401.081	0.753172
-401.543	0.749945
-402.005	0.655714
-402.467	0.699943
-402.928	0.775872
-403.39	0.768199
-403.852	0.759714
-404.314	0.831218
-404.776	0.910821
-405.238	0.822276
-405.7	0.7163
-406.162	0.737966
-406.624	0.698629
-407.086	0.744921
-407.548	0.733207
-408.011	0.770814
-408.473	0.746988
-408.935	0.687929
-409.397	0.680005
-409.859	0.724818
-410.322	0.720059
-410.784	0.864681
-411.246	0.878434
-411.708	0.757349
-412.171	0.766686
-412.633	0.772018
-413.095	0.75371
-413.558	0.805655
-414.02	0.721641
-414.483	0.832588
-414.945	0.851879
-415.408	0.78669
-415.87	0.832987
-416.333	0.721445
-416.795	0.829447
-417.258	0.8864
-417.72	0.694896
-418.183	0.885004
-418.646	0.76538
-419.108	0.863703
-419.571	0.849365
-420.034	0.794928
-420.496	1.01288
-420.959	0.877077
-421.422	0.810912
-421.885	0.757006
-422.348	0.692732
-422.81	0.820795
-423.273	0.947284
-423.736	0.72541
-424.199	0.69306
-424.662	0.745952
-425.125	0.753211
-425.588	0.735396
-426.051	0.644437
-426.514	0.752581
-426.977	0.79422
-427.44	0.667436
-427.903	0.7167
-428.366	0.757756
-428.829	0.746053
-429.292	0.655452
-429.756	0.667244
-430.219	0.674009
-430.682	0.645397
-431.145	0.630908
-431.609	0.641212
-432.072	0.585648
-432.535	0.479367
-432.998	0.601248
-433.462	0.580521
-433.925	0.516837
-434.389	0.638772
-434.852	0.71085
-435.315	0.739532
-435.779	0.599936
-436.242	0.473888
-436.706	0.5324
-437.169	0.686144
-437.633	0.544745
-438.096	0.533454
-438.56	0.511822
-439.024	0.56208
-439.487	0.622295
-439.951	0.539168
-440.415	0.490206
-440.878	0.500932
-441.342	0.558485
-441.806	0.441308
-442.27	0.361335
-442.733	0.363028
-443.197	0.487911
-443.661	0.44171
-444.125	0.374745
-444.589	0.549026
-445.053	0.503102
-445.517	0.466103
-445.981	0.540592
-446.445	0.61114
-446.909	0.483111
-447.373	0.511508
-447.837	0.463586
-448.301	0.564866
-448.765	0.521737
-449.229	0.632014
-449.693	0.625051
-450.157	0.656233
-450.621	0.556519
-451.086	0.563831
-451.55	0.593964
-452.014	0.538185
-452.478	0.501035
-452.943	0.54763
-453.407	0.607808
-453.871	0.565282
-454.336	0.636213
-454.8	0.687045
-455.264	0.645252
-455.729	0.584894
-456.193	0.668576
-456.658	0.655744
-457.122	0.672795
-457.587	0.668565
-458.051	0.758752
-458.516	0.662955
-458.98	0.663922
-459.445	0.72869
-459.91	0.685024
-460.374	0.548144
-460.839	0.644004
-461.304	0.646709
-461.768	0.723044
-462.233	0.645284
-462.698	0.680668
-463.163	0.689207
-463.627	0.831627
-464.092	0.690427
-464.557	0.726027
-465.022	0.707422
-465.487	0.624251
-465.952	0.878085
-466.417	0.673282
-466.882	0.759179
-467.347	0.85701
-467.812	0.731991
-468.277	0.735216
-468.742	0.735744
-469.207	0.875161
-469.672	0.726908
-470.137	0.849838
-470.602	0.930276
-471.067	0.787721
-471.532	0.949817
-471.998	0.986331
-472.463	0.924743
-472.928	0.91779
-473.393	0.948167
-473.859	0.869815
-474.324	1.03452
-474.789	0.939168
-475.255	1.07876
-475.72	1.15728
-476.185	1.05038
-476.651	1.00676
-477.116	1.200016
-477.582	1.1666
-478.047	1.27621
-478.513	1.21011
-478.978	1.30132
-479.444	1.16926
-479.909	1.28744
-480.375	1.33615
-480.841	1.32956
-481.306	1.49183
-481.772	1.43062
-482.238	1.4274
-482.703	1.50434
-483.169	1.71531
-483.635	1.61008
-484.101	1.78147
-484.567	1.85782
-485.032	1.94314
-485.498	1.904976
-485.964	1.88653
-486.43	2.01071
-486.896	2.2027
-487.362	2.12333
-487.828	2.19699
-488.294	2.28088
-488.76	2.4785
-489.226	2.63223
-489.692	2.60651
-490.158	2.72448
-490.624	3.03845
-491.09	3.07852
-491.556	3.20031
-492.023	3.48949
-492.489	3.73614
-492.955	3.99575
-493.421	4.29616
-493.887	4.42704
-494.354	4.80835
-494.82	5.08034
-495.286	5.55751
-495.753	5.99362
-496.219	6.34508
-496.685	6.73213
-497.152	7.319
-497.618	7.80865
-498.085	8.41146
-498.551	9.06044
-499.018	9.4209
-499.484	10.0879
-499.951	10.6348
-500.417	11.0619
-500.884	11.4992
-501.351	11.6807
-501.817	12.0767
-502.284	12.2501
-502.751	12.3345
-503.217	12.3879
-503.684	12.1058
-504.151	11.9119
-504.618	11.5942
-505.084	11.2111
-505.551	10.5843
-506.018	10.2319
-506.485	9.665024
-506.952	9.26586
-507.419	8.77859
-507.886	8.0583
-508.353	7.57438
-508.82	6.89763
-509.287	6.36044
-509.754	6.100016
-510.221	5.53354
-510.688	5.20198
-511.155	4.81608
-511.622	4.47226
-512.089	4.17012
-512.556	3.81682
-513.023	3.49408
-513.491	3.20647
-513.958	3.07844
-514.425	2.78717
-514.892	2.64362
-515.36	2.49577
-515.827	2.39706
-516.294	2.2291
-516.762	2.23104
-517.229	1.90064
-517.696	1.88625
-518.164	2.01504
-518.631	1.87262
-519.099	1.6347
-519.566	1.63255
-520.034	1.47875
-520.501	1.39744
-520.969	1.35766
-521.437	1.27323
-521.904	1.27157
-522.372	1.21919
-522.839	1.43674
-523.307	1.18478
-523.775	1.15332
-524.243	1.12595
-524.71	1.06249
-525.178	1.10352
-525.646	0.967936
-526.114	0.954971
-526.582	0.979378
-527.049	0.979012
-527.517	0.900016
-527.985	0.859355
-528.453	0.902564
-528.921	0.808469
-529.389	0.809141
-529.857	0.727017
-530.325	0.715332
-530.793	0.681362
-531.261	0.635682
-531.729	0.639543
-532.197	0.611228
-532.665	0.651273
-533.134	0.576917
-533.602	0.597652
-534.07	0.604139
-534.538	0.540482
-535.006	0.634059
-535.475	0.572123
-535.943	0.445321
-536.411	0.494416
-536.88	0.571611
-537.348	0.477058
-537.816	0.524352
-538.285	0.540338
-538.753	0.43411
-539.222	0.425788
-539.69	0.339266
-540.159	0.417303
-540.627	0.355358
-541.096	0.380663
-541.564	0.485188
-542.033	0.245321
-542.501	0.40869
-542.97	0.268852
-543.439	0.293915
-543.907	0.287687
-544.376	0.222132
-544.845	0.287241
-545.314	0.276372
-545.782	0.223083
-546.251	0.171397
-546.72	0.366441
-547.189	0.295436
-547.658	0.249262
-548.126	0.176377
-548.595	0.501858
-549.064	0.256482
-549.533	0.308212
-550.002	0.267451
-550.471	0.285093
-550.94	0.271081
-551.409	0.326206
-551.878	0.289127
-552.347	0.332217
-552.817	0.274233
-553.286	0.312341
-553.755	0.228821
-554.224	0.259547
-554.693	0.207415
-555.162	0.264448
-555.632	0.20555
-556.101	0.32019
-556.57	0.278631
-557.039	0.324123
-557.509	0.219321
-557.978	0.246542
-558.448	0.217618
-558.917	0.243262
-559.386	0.331335
-559.856	0.343844
-560.325	0.261936
-560.795	0.0840071
-561.264	0.188775
-561.734	0.225808
-562.203	0.201579
-562.673	0.162206
-563.143	0.224203
-563.612	0.26792
-564.082	0.116722
-564.552	0.115842
-565.021	0.135312
-565.491	0.108674
-565.961	0.185008
-566.43	0.234004
-566.9	0.244507
-567.37	0.118809
-567.84	0.222132
-568.31	0.0913884
-568.78	0.166075
-569.25	0.181058
-569.719	0.168951
-570.189	0.20197
-570.659	0.126172
-571.129	0.183573
-571.599	0.233545
-572.069	0.209755
-572.539	0.0793084
-573.01	0.145822
-573.48	0.282229
-573.95	0.205115
-574.42	0.0922382
-574.89	0.205751
-575.36	0.188036
-575.831	0.167166
-576.301	0.273547
-576.771	0.0575609
-577.241	0.224028
-577.712	0.240839
-578.182	0.111529
-578.652	0.262372
-579.123	0.100491
-579.593	0.242651
-580.064	0.291744
-580.534	0.21547
-581.004	0.1909
-581.475	0.266964
-581.945	0.219051
-582.416	0.273173
-582.887	0.239099
-583.357	0.341929
-583.828	0.254043
-584.298	0.317045
-584.769	0.298434
-585.24	0.209884
-585.71	0.385996
-586.181	0.146428
-586.652	0.28088
-587.123	0.184725
-587.593	0.178857
-588.064	0.335218
-588.535	0.23424
-589.006	0.220128
-589.477	0.28147
-589.948	0.349076
-590.419	0.20138
-590.89	0.275161
-591.361	0.284148
-591.832	0.207321
-592.303	0.312402
-592.774	0.243342
-593.245	0.266379
-593.716	0.223522
-594.187	0.33179
-594.658	0.379559
-595.129	0.283644
-595.6	0.296862
-596.072	0.406825
-596.543	0.271307
-597.014	0.325321
-597.485	0.24774
-597.957	0.260322
-598.428	0.353207
-598.899	0.222041
-599.371	0.263035
-599.842	0.294951
-600.313	0.261214
-600.785	0.452853
-601.256	0.349287
-601.728	0.41246
-602.199	0.443948
-602.671	0.233454
-603.142	0.271205
-603.614	0.268741
-604.085	0.33547
-604.557	0.363374
-605.029	0.318697
-605.5	0.127326
-605.972	0.2447
-606.444	0.190775
-606.915	0.339618
-607.387	0.267324
-607.859	0.264807
-608.331	0.21538
-608.803	0.237001
-609.274	0.190676
-609.746	0.263927
-610.218	0.29466
-610.69	0.312116
-611.162	0.391874
-611.634	0.263934
-612.106	0.219966
-612.578	0.128578
-613.05	0.214976
-613.522	0.182297
-613.994	0.147467
-614.466	0.233989
-614.938	0.246516
-615.41	0.35336
-615.883	0.205716
-616.355	0.294756
-616.827	0.298151
-617.299	0.275796
-617.771	0.232983
-618.244	0.195529
-618.716	0.1045
-619.188	0.245593
-619.661	0.111399
-620.133	0.177634
-620.605	0.246853
-621.078	0.160123
-621.55	0.31547
-622.023	0.297908
-622.495	0.249001
-622.968	0.311724
-623.44	0.271957
-623.913	0.2391
-624.385	0.101447
-624.858	0.130597
-625.331	0.204228
-625.803	0.195627
-626.276	0.170375
-626.749	0.140357
-627.221	0.209129
-627.694	0.194853
-628.167	0.191276
-628.64	0.218615
-629.112	0.224107
-629.585	0.172073
-630.058	0.184162
-630.531	0.277477
-631.004	0.203033
-631.477	0.149127
-631.95	0.246428
-632.423	0.137879
-632.896	0.288434
-633.369	0.110046
-633.842	0.257771
-634.315	0.167404
-634.788	0.210585
-635.261	0.139662
-635.734	0.160962
-636.207	0.160091
-636.68	0.198718
-637.154	0.172373
-637.627	0.192553
-638.1	0.0683502
-638.573	0.225198
-639.047	0.130969
-639.52	0.213013
-639.993	0.0595182
-640.467	0.126194
-640.94	0.0572942
-641.413	0.311559
-641.887	0.110876
-642.36	0.166862
-642.834	0.187364
-643.307	0.128233
-643.781	0.169191
-644.254	0.159353
-644.728	0.107292
-645.201	0.173017
-645.675	0.2104
-646.149	0.13653
-646.622	0.109308
-647.096	0.197561
-647.57	0.147454
-648.043	0.18042
-648.517	0.0883591
-648.991	0.206135
-649.465	0.0570489
-649.939	0.27272
-650.412	0.138608
-650.886	0.141099
-651.36	0.0437333
-651.834	0.219808
-652.308	0.0631964
-652.782	0.14419
-653.256	0.132962
-653.73	0.0161529
-654.204	-0.00469867
-654.678	0.118364
-655.152	0.0292693
-655.626	0.0748604
-656.1	0.140629
-656.574	0.150647
-657.049	0.187323
-657.523	0.157735
-657.997	0.149733
-658.471	0.127287
-658.945	0.158425
-659.42	0.0824747
-659.894	0.12658
-660.368	0.0396178
-660.843	0.0654151
-661.317	-0.0259822
-661.791	0.0598151
-662.266	0.0894276
-662.74	0.168414
-663.215	0.142679
-663.689	0.107212
-664.164	0.202892
-664.638	0.20222
-665.113	0.203564
-665.587	0.123108
-666.062	0.0274631
-666.537	0.0860302
-667.011	0.0839876
-667.486	0.069632
-667.961	0.186119
-668.435	0.175849
-668.91	0.0296658
-669.385	0.150588
-669.86	0.106395
-670.334	0.0313671
-670.809	0.0696924
-671.284	0.190562
-671.759	0.210247
-672.234	0.120516
-672.709	0.0976658
-673.184	0.0873333
-673.659	0.106043
-674.134	0.160542
-674.609	0.106242
-675.084	-0.00613156
-675.559	0.0888231
-676.034	-0.0350738
-676.509	0.0142187
-676.984	-0.0741689
-677.459	0.0167716
-677.935	-0.0571253
-678.41	0.0184124
-678.885	0.061296
-679.36	-0.0769742
-679.835	0.0358382
-680.311	-0.0118596
-680.786	-0.0986542
-681.261	0.0409778
-681.737	0.174812
-682.212	0.0238809
-682.688	0.0503324
-683.163	-0.0836356
-683.638	0.0807022
-684.114	0.00666844
-684.589	0.0206382
-685.065	-0.0308409
-685.54	0.0839609
-686.016	0.0860036
-686.492	-0.0502862
-686.967	-0.0419004
-687.443	0.126853
-687.919	0.0650702
-688.394	0.0275804
-688.87	-0.0206631
-689.346	-0.0405636
-689.821	0.00844267
-690.297	-0.0299627
-690.773	-0.00946311
-691.249	0.0134222
-691.725	0.0313333
-692.201	-0.0378969
-692.677	0.188455
-693.152	-0.0483893
-693.628	-0.0566151
-694.104	-0.0475289
-694.58	-0.0233618
-695.056	-0.105136
-695.532	-0.0623058
-696.008	-0.0716249
-696.485	0.0688053
-696.961	-0.0682844
-697.437	0.0349778
-697.913	0.060784
-698.389	0.0481849
-698.865	0.0294027
-699.341	-0.0287058
-699.818	0.066016
-700.294	0.0262844
-700.77	-0.0713404
-701.247	-0.0558116
-701.723	0.008848
-702.199	0.00912533
-702.676	-0.0755253
-703.152	-0.000481778
-703.629	0.0390062
-704.105	-0.0254382
-704.581	-0.0304196
-705.058	-0.0970507
-705.534	-0.124837
-706.011	-0.0289227
-706.488	-0.0255733
-706.964	0.0574098
-707.441	-0.0937813
-707.917	-0.0758773
-708.394	-0.0575982
-708.871	-0.00832356
-709.347	-0.0568462
-709.824	0.0210578
-710.301	0.00588622
-710.778	-0.0853582
-711.255	-0.0570524
-711.731	0.0236996
-712.208	-0.0276996
-712.685	0.0656693
-713.162	-0.00627556
-713.639	0.0111982
-714.116	-0.0425991
-714.593	-0.0931911
-715.07	0.0656444
-715.547	-0.0311662
-716.024	-0.00330844
-716.501	-0.12037
-716.978	-0.00282489
-717.455	-0.138695
-717.932	0.0109191
-718.409	-0.0941778
-718.887	-0.0386489
-719.364	0.0133031
-719.841	-0.0514187
-720.318	-0.000200889
-720.795	-0.0667431
-721.273	-0.0742169
-721.75	-0.066464
-722.227	0.0138773
-722.705	-0.0904942
-723.182	-0.066416
-723.66	-0.0990418
-724.137	-0.0614187
-724.614	0.0598258
-725.092	-0.122308
-725.569	0.00911644
-726.047	-0.0376213
-726.525	-0.149493
-727.002	-0.0885618
-727.48	-0.139323
-727.957	-0.0613049
-728.435	-0.00698667
-728.913	-0.0143893
-729.39	-0.093296
-729.868	-0.0224551
-730.346	-0.00573511
-730.823	-0.00965867
-731.301	0.0110507
-731.779	-0.0666471
-732.257	-0.0510116
-732.735	0.0108089
-733.213	-0.0295236
-733.691	-0.04456
-734.168	-0.0578933
-734.646	-0.11187
-735.124	-0.0636996
-735.602	-0.118028
-736.08	-0.0266578
-736.558	-0.109481
-737.036	-0.00999289
-737.515	0.0328658
-737.993	-0.00231289
-738.471	-0.00259022
-738.949	-0.0546862
-739.427	-0.107275
-739.905	-0.0248818
-740.384	-0.0250347
-740.862	-0.0918276
-741.34	-0.0616569
-741.818	-0.0137191
-742.297	-0.0315964
-742.775	-0.0166507
-743.253	-0.020128
-743.732	0.0214293
-744.21	0.0357476
-744.689	0.0267164
-745.167	-0.0604249
-745.646	-0.0639822
-746.124	-0.0379858
-746.603	-0.0283164
-747.081	0.0696569
-747.56	-0.0741973
-748.038	0.0369938
-748.517	-0.009504
-748.996	0.00417778
-749.474	0.00461689
-749.953	-0.04032
-750.432	-0.0642987
-750.91	0.0259342
-751.389	-0.00943289
-751.868	-0.0689582
-752.347	-0.065168
-752.826	-0.0878382
-753.304	-0.112588
-753.783	0.0733618
-754.262	-0.0186364
-754.741	-0.05584
-755.22	-0.0973013
-755.699	0.00158933
-756.178	-0.150078
-756.657	-0.0153476
-757.136	-0.118135
-757.615	-0.107355
-758.094	-0.017248
-758.573	0.00526933
-759.052	-0.0550436
-759.532	-0.0698649
-760.011	-0.0884409
-760.49	-0.155063
-760.969	-0.0135484
-761.448	-0.0297049
-761.928	-0.0172409
-762.407	0.0128036
-762.886	-0.0653973
-763.366	-0.0623147
-763.845	-0.0220373
-764.325	0.0622364
-764.804	-0.020944
-765.283	-0.119465
-765.763	0.0808836
-766.242	-0.131778
-766.722	-0.10322
-767.201	-0.0956569
-767.681	-0.110836
-768.161	-0.0955307
-768.64	-0.0135147
-769.12	-0.0115716
-769.599	-0.0259271
-770.079	-0.0605244
-770.559	0.0131484
-771.038	0.0345458
-771.518	-0.0178916
-771.998	-0.0461707
-772.478	-0.0121298
-772.958	-0.0167253
-773.437	-0.0694044
-773.917	-0.125525
-774.397	-0.0131787
-774.877	-0.00880533
-775.357	-0.0526596
-775.837	-0.0495858
-776.317	-0.0310187
-776.797	-0.0861173
-777.277	-0.00880711
-777.757	0.0439716
-778.237	-0.0380996
-778.717	0.021712
-779.197	-0.0496942
-779.677	-0.16058
-780.158	-0.00447822
-780.638	-0.0738684
-781.118	-0.0789049
-781.598	-0.0764231
-782.079	-0.0820782
-782.559	-0.184542
-783.039	-0.154103
-783.52	0.0357547
-784	-0.0474898
-784.48	-0.00762489
-784.961	-0.156363
-785.441	-0.0720711
-785.922	0.0452747
-786.402	0.0378471
-786.882	0.0501493
-787.363	0.0184018
-787.844	0.00136711
-788.324	-0.0458364
-788.805	-0.0181404
-789.285	-0.00367822
-789.766	-0.0783733
-790.247	-0.0382382
-790.727	0.0350596
-791.208	-0.0422969
-791.689	-0.0278969
-792.17	-0.000280889
-792.65	-0.0613938
-793.131	-0.0622898
-793.612	0.0265724
-794.093	0.0562222
-794.574	-0.028768
-795.055	-0.0396622
-795.535	0.00154667
-796.016	-0.0646364
-796.497	-0.0716871
-796.978	0.0185351
-797.459	-0.00210133
-797.94	-0.0433653
-798.421	-0.102926
-798.903	-0.0425956
-799.384	0.0526827
-799.865	-0.0848089
-800.346	-0.0546844
-800.827	-0.0106169
-801.308	-0.008512
-801.79	-0.109883
-802.271	-0.0115324
-802.752	-0.141801
-803.233	0.0393547
-803.715	0.004544
-804.196	-0.110974
-804.677	-0.081152
-805.159	-0.103266
-805.64	-0.112423
-806.122	-0.076528
-806.603	-0.109092
-807.085	-0.0241547
-807.566	-0.0139502
-808.048	-0.0631449
-808.529	-0.065664
-809.011	-0.12579
-809.492	-0.0467236
-809.974	-0.002816
-810.456	-0.090432
-810.937	-0.0517938
-811.419	-0.0753067
-811.901	-0.0674578
-812.383	-0.0874133
-812.864	-0.0463022
-813.346	0.0130809
-813.828	-0.0857636
-814.31	-0.066704
-814.792	-0.0356658
-815.274	-0.004304
-815.755	-0.0592516
-816.237	-0.0146987
-816.719	-0.0451733
-817.201	-0.101015
-817.683	-0.123461
-818.165	-0.105961
-818.647	-0.156043
-819.13	-0.0986489
-819.612	-0.159511