File: tomke/20240809_Si_on_TiO2/20240809/corrected Raman data export/AS_70mA.txt
-194.586	-1.86345
-195.038	-2.25456
-195.49	-2.02659
-195.942	-1.97234
-196.394	-1.96907
-196.846	-2.01193
-197.298	-2.01069
-197.75	-1.996
-198.202	-2.09818
-198.654	-2.17506
-199.106	-1.90377
-199.558	-1.92658
-200.011	-1.94974
-200.463	-1.92364
-200.915	-1.94448
-201.367	-1.78513
-201.82	-2.20134
-202.272	-2.04007
-202.724	-2.11439
-203.177	-2.09753
-203.629	-1.97957
-204.081	-2.04183
-204.534	-2.10115
-204.986	-1.84984
-205.439	-1.95998
-205.891	-1.90439
-206.344	-1.97517
-206.796	-1.94633
-207.249	-2.03799
-207.701	-2.17083
-208.154	-2.05444
-208.606	-2.11308
-209.059	-2.09245
-209.512	-1.88832
-209.964	-2.12907
-210.417	-1.99523
-210.87	-1.97885
-211.322	-2.09193
-211.775	-2.09408
-212.228	-1.96574
-212.681	-2.03499
-213.133	-1.96579
-213.586	-2.06998
-214.039	-1.99635
-214.492	-1.88549
-214.945	-1.82979
-215.398	-1.96797
-215.851	-1.86732
-216.304	-2.05893
-216.757	-2.076
-217.21	-1.99424
-217.663	-2.08422
-218.116	-1.97899
-218.569	-2.13756
-219.022	-2.09105
-219.475	-2.00922
-219.928	-1.98075
-220.381	-2.08073
-220.835	-1.88662
-221.288	-1.93664
-221.741	-1.98766
-222.194	-2.06774
-222.648	-2.11864
-223.101	-2.16248
-223.554	-2.03424
-224.008	-1.97773
-224.461	-2.01026
-224.914	-2.04152
-225.368	-1.95008
-225.821	-2.12388
-226.275	-2.10247
-226.728	-2.21142
-227.181	-2.29114
-227.635	-1.99418
-228.088	-2.06084
-228.542	-2.15047
-228.996	-2.24558
-229.449	-2.02053
-229.903	-1.93261
-230.356	-1.97969
-230.81	-2.0573
-231.264	-2.25487
-231.717	-1.90731
-232.171	-2.15909
-232.625	-1.92384
-233.079	-1.80603
-233.532	-1.99392
-233.986	-1.84291
-234.44	-1.89072
-234.894	-1.96062
-235.348	-1.9926
-235.802	-2.02798
-236.256	-2.01931
-236.71	-2.00506
-237.164	-1.97621
-237.618	-1.9658
-238.072	-1.98958
-238.526	-1.91664
-238.98	-1.80684
-239.434	-1.95722
-239.888	-2.08086
-240.342	-2.06517
-240.796	-2.00693
-241.25	-1.94063
-241.704	-1.92786
-242.159	-2.16601
-242.613	-1.94579
-243.067	-2.08584
-243.521	-2.09869
-243.976	-2.09326
-244.43	-2.11156
-244.884	-1.72493
-245.339	-1.9429
-245.793	-1.91644
-246.247	-2.17472
-246.702	-1.96539
-247.156	-1.87102
-247.611	-1.91064
-248.065	-2.10966
-248.52	-2.01618
-248.974	-1.87514
-249.429	-1.97503
-249.883	-1.86837
-250.338	-1.86701
-250.792	-1.93674
-251.247	-2.00489
-251.702	-1.93585
-252.156	-1.9796
-252.611	-1.88293
-253.066	-1.79128
-253.52	-1.84175
-253.975	-1.75874
-254.43	-1.85577
-254.885	-1.81885
-255.34	-1.90951
-255.794	-1.84718
-256.249	-1.63207
-256.704	-1.82377
-257.159	-1.97698
-257.614	-1.74132
-258.069	-1.88669
-258.524	-1.96385
-258.979	-1.80909
-259.434	-1.84145
-259.889	-1.66171
-260.344	-1.80995
-260.799	-1.88194
-261.254	-1.59527
-261.709	-1.69376
-262.165	-1.84563
-262.62	-1.6309
-263.075	-1.70654
-263.53	-1.66359
-263.985	-1.67918
-264.441	-1.26606
-264.896	-1.33265
-265.351	-1.18188
-265.807	-1.17152
-266.262	-1.2469
-266.717	-0.980116
-267.173	-0.862588
-267.628	-0.741027
-268.084	-0.642201
-268.539	-0.831173
-268.994	-0.794422
-269.45	-0.721196
-269.905	-0.803752
-270.361	-0.59959
-270.817	-0.319053
-271.272	-0.145653
-271.728	-0.0395578
-272.183	0.0619133
-272.639	-0.163298
-273.095	0.37556
-273.55	0.576187
-274.006	0.384507
-274.462	0.817199
-274.918	0.493549
-275.373	0.583397
-275.829	0.466146
-276.285	1.21936
-276.741	1.41724
-277.197	1.28433
-277.653	1.13511
-278.109	1.58254
-278.564	1.80399
-279.02	1.21533
-279.476	1.19795
-279.932	1.26875
-280.388	1.39793
-280.844	1.58116
-281.3	1.7397
-281.757	2.57759
-282.213	2.53999
-282.669	2.87448
-283.125	2.40353
-283.581	2.40114
-284.037	2.37215
-284.494	2.8757
-284.95	2.25373
-285.406	2.64587
-285.862	3.33565
-286.319	2.41554
-286.775	3.01316
-287.231	3.17066
-287.688	2.67626
-288.144	3.41722
-288.6	2.97877
-289.057	3.21001
-289.513	3.38045
-289.97	3.27471
-290.426	3.8273
-290.883	3.5342
-291.339	3.07877
-291.796	3.71206
-292.252	3.46433
-292.709	3.46229
-293.166	3.46949
-293.622	3.01477
-294.079	3.23315
-294.536	3.12559
-294.992	3.57849
-295.449	2.88381
-295.906	3.43711
-296.363	2.95921
-296.82	2.9253
-297.276	3.28521
-297.733	3.39754
-298.19	3.38275
-298.647	3.30872
-299.104	3.59818
-299.561	3.0758
-300.018	2.57377
-300.475	2.32429
-300.932	3.24101
-301.389	3.56405
-301.846	3.09653
-302.303	3.37163
-302.76	2.92446
-303.217	3.1631
-303.674	3.12152
-304.131	2.9305
-304.589	2.68996
-305.046	2.60676
-305.503	2.96455
-305.96	2.49383
-306.417	3.11301
-306.875	2.95294
-307.332	2.80419
-307.789	2.8876
-308.247	2.44309
-308.704	2.3807
-309.161	2.85476
-309.619	3.45667
-310.076	2.66714
-310.534	2.53094
-310.991	3.17249
-311.449	2.9972
-311.906	2.7049
-312.364	2.43886
-312.821	2.62863
-313.279	2.51438
-313.737	2.91526
-314.194	2.89059
-314.652	2.83563
-315.11	3.63046
-315.567	2.6568
-316.025	2.88609
-316.483	2.3364
-316.94	2.60864
-317.398	2.94087
-317.856	2.90471
-318.314	2.53436
-318.772	2.29273
-319.23	2.59688
-319.687	2.07688
-320.145	2.71286
-320.603	2.80966
-321.061	2.67625
-321.519	2.65438
-321.977	1.82652
-322.435	2.98362
-322.893	2.83988
-323.351	2.61915
-323.81	2.82113
-324.268	3.12378
-324.726	2.36792
-325.184	1.89609
-325.642	2.20852
-326.1	1.80267
-326.559	2.22696
-327.017	2.13478
-327.475	2.58323
-327.933	2.47215
-328.392	2.52612
-328.85	2.13018
-329.308	2.55252
-329.767	2.50349
-330.225	2.60441
-330.684	2.46878
-331.142	2.6961
-331.6	2.29689
-332.059	2.41615
-332.517	2.23323
-332.976	2.65287
-333.434	2.89687
-333.893	2.38968
-334.352	2.88184
-334.81	2.47308
-335.269	2.01951
-335.728	2.636
-336.186	2.07703
-336.645	2.31517
-337.104	2.57605
-337.562	1.86142
-338.021	2.29357
-338.48	2.53649
-338.939	2.56079
-339.398	1.95312
-339.857	2.25154
-340.315	2.64948
-340.774	2.12626
-341.233	2.39394
-341.692	2.46113
-342.151	2.83786
-342.61	1.74988
-343.069	1.832
-343.528	2.14791
-343.987	1.43497
-344.446	2.44715
-344.905	2.06824
-345.365	2.32066
-345.824	2.14095
-346.283	1.92797
-346.742	2.40412
-347.201	2.13832
-347.66	2.40053
-348.12	1.84168
-348.579	2.33606
-349.038	2.41329
-349.498	2.17118
-349.957	1.8706
-350.416	2.33712
-350.876	2.08822
-351.335	2.82544
-351.795	1.97932
-352.254	2.41478
-352.714	2.30968
-353.173	2.27204
-353.633	2.66385
-354.092	1.71423
-354.552	1.94652
-355.011	2.53124
-355.471	2.45494
-355.93	2.01838
-356.39	2.50376
-356.85	2.2034
-357.309	2.34726
-357.769	2.21793
-358.229	1.90291
-358.689	2.1299
-359.148	1.88958
-359.608	1.79705
-360.068	1.85726
-360.528	1.88453
-360.988	1.73114
-361.448	1.95839
-361.908	2.24809
-362.368	1.58534
-362.828	2.23085
-363.287	1.71465
-363.747	1.66139
-364.208	2.11498
-364.668	1.89008
-365.128	2.00185
-365.588	1.7705
-366.048	2.04131
-366.508	1.65244
-366.968	2.18685
-367.428	2.15575
-367.889	2.01202
-368.349	1.92765
-368.809	2.44116
-369.269	1.90052
-369.73	1.71854
-370.19	1.48252
-370.65	1.56059
-371.111	1.77346
-371.571	1.83224
-372.031	1.78311
-372.492	2.08722
-372.952	1.70203
-373.413	1.60326
-373.873	1.86249
-374.334	2.18872
-374.794	1.14501
-375.255	1.6839
-375.715	1.85727
-376.176	1.91719
-376.637	2.17507
-377.097	1.67106
-377.558	1.94549
-378.019	1.49767
-378.479	1.83288
-378.94	1.75879
-379.401	1.8443
-379.861	2.15504
-380.322	1.98407
-380.783	1.65198
-381.244	2.07802
-381.705	2.28044
-382.166	1.95776
-382.627	2.20325
-383.088	1.94385
-383.548	1.73528
-384.009	1.78591
-384.47	1.86807
-384.931	1.62045
-385.393	2.49996
-385.854	1.78992
-386.315	1.81077
-386.776	2.29184
-387.237	2.234
-387.698	2.13064
-388.159	2.18374
-388.62	1.93248
-389.082	2.25838
-389.543	1.83471
-390.004	1.78672
-390.465	2.1912
-390.927	2.24412
-391.388	1.80261
-391.849	1.82778
-392.311	2.07846
-392.772	1.62912
-393.234	1.64102
-393.695	2.10387
-394.156	0.962904
-394.618	1.43573
-395.079	1.83946
-395.541	1.80939
-396.003	1.69256
-396.464	1.9932
-396.926	1.77867
-397.387	1.53404
-397.849	1.22653
-398.311	1.5583
-398.772	1.80261
-399.234	1.76263
-399.696	2.23923
-400.158	2.15199
-400.619	1.9566
-401.081	1.70525
-401.543	2.27597
-402.005	1.91646
-402.467	1.97888
-402.928	2.86131
-403.39	1.87332
-403.852	1.55867
-404.314	1.98438
-404.776	1.65157
-405.238	2.09106
-405.7	1.44226
-406.162	2.0135
-406.624	1.69363
-407.086	1.82322
-407.548	1.71548
-408.011	1.87177
-408.473	1.64549
-408.935	1.89804
-409.397	2.04517
-409.859	2.42517
-410.322	2.50273
-410.784	2.3674
-411.246	1.9389
-411.708	2.03122
-412.171	1.84348
-412.633	1.63903
-413.095	2.45591
-413.558	2.17246
-414.02	1.86156
-414.483	1.61438
-414.945	1.89588
-415.408	1.41483
-415.87	1.97158
-416.333	1.60023
-416.795	2.059
-417.258	2.08522
-417.72	1.74235
-418.183	1.74
-418.646	1.52521
-419.108	2.01433
-419.571	1.493
-420.034	1.85729
-420.496	1.77431
-420.959	1.57318
-421.422	1.67046
-421.885	1.443
-422.348	1.39481
-422.81	1.48882
-423.273	1.39772
-423.736	1.64702
-424.199	2.13344
-424.662	1.75582
-425.125	1.46685
-425.588	1.60424
-426.051	1.83735
-426.514	1.75004
-426.977	1.26372
-427.44	1.85148
-427.903	1.48843
-428.366	1.5399
-428.829	1.27562
-429.292	1.35122
-429.756	1.98516
-430.219	1.59992
-430.682	1.73278
-431.145	1.54996
-431.609	0.982857
-432.072	1.13116
-432.535	1.16245
-432.998	1.5176
-433.462	1.50231
-433.925	1.41583
-434.389	1.41993
-434.852	1.73873
-435.315	1.56259
-435.779	1.41225
-436.242	1.33132
-436.706	1.28413
-437.169	1.69096
-437.633	1.37491
-438.096	1.44912
-438.56	1.82702
-439.024	1.19773
-439.487	1.34803
-439.951	1.20091
-440.415	0.759898
-440.878	1.46388
-441.342	1.0567
-441.806	1.47869
-442.27	1.78836
-442.733	1.05673
-443.197	1.35134
-443.661	1.46441
-444.125	1.28373
-444.589	1.04826
-445.053	1.15429
-445.517	1.34527
-445.981	1.8035
-446.445	1.40655
-446.909	1.6372
-447.373	1.57463
-447.837	1.38745
-448.301	1.39122
-448.765	1.70254
-449.229	1.45249
-449.693	1.59722
-450.157	1.40949
-450.621	1.90646
-451.086	1.90225
-451.55	1.47418
-452.014	1.18368
-452.478	1.06756
-452.943	1.28289
-453.407	1.63996
-453.871	1.27358
-454.336	1.40126
-454.8	1.44046
-455.264	1.44777
-455.729	1.78742
-456.193	1.97849
-456.658	1.65284
-457.122	1.84646
-457.587	1.44291
-458.051	1.27222
-458.516	1.64824
-458.98	1.71844
-459.445	1.73803
-459.91	2.052
-460.374	1.55116
-460.839	1.37489
-461.304	1.76418
-461.768	1.65541
-462.233	1.25643
-462.698	1.85698
-463.163	2.4303
-463.627	2.1488
-464.092	2.05915
-464.557	2.10436
-465.022	1.51892
-465.487	2.25776
-465.952	2.07741
-466.417	2.02213
-466.882	1.59298
-467.347	1.77204
-467.812	2.27472
-468.277	1.72486
-468.742	1.71391
-469.207	1.67957
-469.672	1.74797
-470.137	2.04215
-470.602	2.37971
-471.067	2.06011
-471.532	2.06782
-471.998	1.95628
-472.463	2.23475
-472.928	1.90577
-473.393	1.88962
-473.859	1.84016
-474.324	2.33866
-474.789	1.68527
-475.255	1.94275
-475.72	2.32918
-476.185	2.19102
-476.651	2.3702
-477.116	2.2949
-477.582	2.4431
-478.047	2.6754
-478.513	2.61888
-478.978	2.68569
-479.444	2.26448
-479.909	2.49862
-480.375	2.63016
-480.841	2.79819
-481.306	2.37431
-481.772	2.33609
-482.238	2.65806
-482.703	2.9211
-483.169	3.24472
-483.635	3.32665
-484.101	3.10923
-484.567	3.5552
-485.032	3.57619
-485.498	3.70877
-485.964	3.69341
-486.43	3.97967
-486.896	3.36583
-487.362	4.00757
-487.828	3.67225
-488.294	3.78679
-488.76	4.37231
-489.226	4.55277
-489.692	5.42016
-490.158	5.49354
-490.624	5.85058
-491.09	5.90553
-491.556	5.96683
-492.023	6.68854
-492.489	7.03891
-492.955	7.47435
-493.421	7.49017
-493.887	7.95723
-494.354	8.39622
-494.82	8.33083
-495.286	8.70647
-495.753	9.2189
-496.219	9.94328
-496.685	10.3708
-497.152	10.7502
-497.618	10.9518
-498.085	11.7613
-498.551	11.7841
-499.018	11.8508
-499.484	11.9826
-499.951	12.3145
-500.417	11.8898
-500.884	12.0624
-501.351	11.9789
-501.817	11.5138
-502.284	11.1709
-502.751	10.171
-503.217	10.1372
-503.684	9.53225
-504.151	9.30551
-504.618	8.44695
-505.084	7.70443
-505.551	7.61659
-506.018	7.52092
-506.485	7.15065
-506.952	7.02999
-507.419	6.85498
-507.886	6.2403
-508.353	5.97816
-508.82	5.71992
-509.287	5.15621
-509.754	4.87546
-510.221	4.90327
-510.688	4.54402
-511.155	4.17247
-511.622	3.79276
-512.089	3.25197
-512.556	3.28791
-513.023	3.11422
-513.491	3.01518
-513.958	3.09014
-514.425	2.8583
-514.892	3.57136
-515.36	3.071
-515.827	2.66631
-516.294	2.61858
-516.762	2.44109
-517.229	2.87487
-517.696	2.22581
-518.164	2.51108
-518.631	1.94978
-519.099	1.99689
-519.566	1.93381
-520.034	1.92752
-520.501	2.19098
-520.969	2.10059
-521.437	2.07962
-521.904	2.16744
-522.372	1.73931
-522.839	1.95791
-523.307	1.87715
-523.775	1.85717
-524.243	1.94996
-524.71	1.67336
-525.178	1.7739
-525.646	1.32313
-526.114	1.35357
-526.582	1.09486
-527.049	1.36784
-527.517	1.03445
-527.985	1.13051
-528.453	1.55978
-528.921	1.33845
-529.389	1.64749
-529.857	1.55944
-530.325	1.42385
-530.793	1.18871
-531.261	1.42462
-531.729	1.19648
-532.197	1.27913
-532.665	1.04571
-533.134	1.03759
-533.602	1.19414
-534.07	1.15924
-534.538	1.02241
-535.006	0.874957
-535.475	1.21948
-535.943	1.19468
-536.411	1.0495
-536.88	1.50775
-537.348	1.07101
-537.816	1.03033
-538.285	0.695793
-538.753	0.506241
-539.222	1.27756
-539.69	0.911833
-540.159	1.0162
-540.627	1.23336
-541.096	0.754412
-541.564	1.06791
-542.033	1.43992
-542.501	1.16769
-542.97	1.06546
-543.439	1.28099
-543.907	0.895246
-544.376	1.01872
-544.845	0.931891
-545.314	0.917896
-545.782	1.05133
-546.251	1.10224
-546.72	0.895413
-547.189	1.4261
-547.658	0.695539
-548.126	0.806816
-548.595	0.952612
-549.064	0.897671
-549.533	0.807427
-550.002	1.1743
-550.471	1.21793
-550.94	1.28849
-551.409	1.07765
-551.878	1.01156
-552.347	1.11556
-552.817	1.01116
-553.286	1.06783
-553.755	1.31626
-554.224	0.904128
-554.693	1.25519
-555.162	1.01402
-555.632	0.944934
-556.101	0.680478
-556.57	0.735017
-557.039	0.439966
-557.509	0.569681
-557.978	0.543931
-558.448	0.428728
-558.917	0.872551
-559.386	0.922006
-559.856	1.0337
-560.325	0.655907
-560.795	1.2953
-561.264	1.06836
-561.734	1.12193
-562.203	1.12209
-562.673	1.00457
-563.143	0.812256
-563.612	1.2287
-564.082	0.702829
-564.552	0.960131
-565.021	0.70591
-565.491	0.807679
-565.961	1.01927
-566.43	0.497079
-566.9	1.02794
-567.37	0.676594
-567.84	0.926236
-568.31	1.10183
-568.78	0.716182
-569.25	0.938677
-569.719	0.905623
-570.189	1.05278
-570.659	1.04436
-571.129	1.20013
-571.599	1.26058
-572.069	1.32572
-572.539	1.02121
-573.01	0.812282
-573.48	0.850467
-573.95	1.19087
-574.42	0.561196
-574.89	0.787399
-575.36	1.098
-575.831	0.878089
-576.301	0.808073
-576.771	0.876449
-577.241	1.10875
-577.712	1.2959
-578.182	0.615329
-578.652	1.19461
-579.123	1.2019
-579.593	1.29735
-580.064	1.12124
-580.534	0.697372
-581.004	0.581824
-581.475	0.364656
-581.945	0.728009
-582.416	0.926609
-582.887	1.01343
-583.357	1.09193
-583.828	0.842391
-584.298	1.02782
-584.769	0.870614
-585.24	1.19977
-585.71	0.707206
-586.181	0.856953
-586.652	0.896903
-587.123	0.273988
-587.593	1.296
-588.064	0.674098
-588.535	1.32684
-589.006	1.50908
-589.477	1.25621
-589.948	1.16379
-590.419	0.882246
-590.89	1.04117
-591.361	0.873267
-591.832	0.975104
-592.303	0.688403
-592.774	0.812219
-593.245	0.850213
-593.716	0.748462
-594.187	0.974309
-594.658	0.658928
-595.129	0.870162
-595.6	0.414423
-596.072	0.677462
-596.543	1.07395
-597.014	0.609207
-597.485	1.07163
-597.957	0.816612
-598.428	0.724593
-598.899	0.740464
-599.371	1.0016
-599.842	0.427403
-600.313	0.75198
-600.785	0.7854
-601.256	0.753834
-601.728	1.04339
-602.199	0.641494
-602.671	1.08937
-603.142	0.643239
-603.614	1.04755
-604.085	1.09947
-604.557	0.387959
-605.029	0.926694
-605.5	0.683469
-605.972	0.621337
-606.444	0.960094
-606.915	1.12488
-607.387	1.17491
-607.859	1.31016
-608.331	1.48656
-608.803	0.723344
-609.274	0.798759
-609.746	0.533563
-610.218	0.444421
-610.69	0.679996
-611.162	0.605199
-611.634	0.392806
-612.106	0.62818
-612.578	0.622624
-613.05	0.635094
-613.522	0.656949
-613.994	0.700374
-614.466	0.797867
-614.938	0.585162
-615.41	1.24723
-615.883	0.442906
-616.355	0.607424
-616.827	0.928987
-617.299	0.79421
-617.771	0.740578
-618.244	1.22642
-618.716	0.681261
-619.188	0.648291
-619.661	0.740734
-620.133	1.39195
-620.605	1.28286
-621.078	0.929768
-621.55	1.02364
-622.023	0.785024
-622.495	0.994402
-622.968	0.557518
-623.44	0.688596
-623.913	0.824198
-624.385	0.161882
-624.858	1.01354
-625.331	0.70359
-625.803	1.1132
-626.276	1.09698
-626.749	1.12271
-627.221	1.04218
-627.694	0.647964
-628.167	1.29373
-628.64	0.920233
-629.112	0.692543
-629.585	0.30505
-630.058	0.697607
-630.531	0.617557
-631.004	0.704094
-631.477	0.25379
-631.95	0.426626
-632.423	0.633488
-632.896	1.0322
-633.369	0.845204
-633.842	1.01385
-634.315	0.709751
-634.788	0.971796
-635.261	0.718562
-635.734	0.442981
-636.207	0.606361
-636.68	1.06373
-637.154	0.986096
-637.627	0.757582
-638.1	0.762326
-638.573	0.774132
-639.047	0.546613
-639.52	0.330683
-639.993	0.748186
-640.467	0.317012
-640.94	0.868432
-641.413	0.637523
-641.887	0.612596
-642.36	0.55618
-642.834	0.505168
-643.307	0.775011
-643.781	0.743234
-644.254	1.07841
-644.728	0.757052
-645.201	0.775218
-645.675	0.721113
-646.149	0.299132
-646.622	0.273696
-647.096	0.146539
-647.57	0.281629
-648.043	0.155802
-648.517	0.379804
-648.991	0.802994
-649.465	0.440666
-649.939	0.316529
-650.412	0.570012
-650.886	0.409891
-651.36	0.176056
-651.834	0.819289
-652.308	0.624226
-652.782	0.452884
-653.256	1.25152
-653.73	0.595274
-654.204	0.25434
-654.678	0.848498
-655.152	0.325956
-655.626	0.679683
-656.1	0.758404
-656.574	0.407466
-657.049	0.856746
-657.523	0.533478
-657.997	0.393844
-658.471	0.263242
-658.945	0.355253
-659.42	0.808164
-659.894	0.657378
-660.368	0.719642
-660.843	0.578932
-661.317	0.484229
-661.791	0.640027
-662.266	0.454879
-662.74	0.354653
-663.215	0.576601
-663.689	0.356972
-664.164	0.354126
-664.638	0.519138
-665.113	0.23896
-665.587	0.589767
-666.062	0.267142
-666.537	0.549838
-667.011	0.195628
-667.486	0.521586
-667.961	0.524321
-668.435	0.682271
-668.91	0.466884
-669.385	0.634794
-669.86	0.387419
-670.334	0.616576
-670.809	0.535134
-671.284	0.0887344
-671.759	0.410324
-672.234	0.267079
-672.709	0.463643
-673.184	0.248684
-673.659	0.55023
-674.134	0.343158
-674.609	0.571067
-675.084	0.851563
-675.559	0.593251
-676.034	0.755027
-676.509	0.151533
-676.984	0.378209
-677.459	0.259744
-677.935	0.532088
-678.41	0.61973
-678.885	0.48846
-679.36	0.171327
-679.835	0.748004
-680.311	0.635993
-680.786	0.429198
-681.261	0.0661422
-681.737	0.574787
-682.212	0.420539
-682.688	0.446188
-683.163	0.718567
-683.638	0.589766
-684.114	0.412707
-684.589	0.32929
-685.065	0.633762
-685.54	0.587461
-686.016	0.275126
-686.492	0.273757
-686.967	0.427402
-687.443	0.369868
-687.919	0.30502
-688.394	0.226958
-688.87	0.413513
-689.346	0.186368
-689.821	0.598713
-690.297	0.179862
-690.773	0.00235333
-691.249	0.1948
-691.725	-0.0526678
-692.201	0.237567
-692.677	0.579279
-693.152	0.28961
-693.628	0.155312
-694.104	0.216981
-694.58	0.479862
-695.056	0.293063
-695.532	0.412604
-696.008	0.398868
-696.485	0.482324
-696.961	0.48241
-697.437	0.615086
-697.913	0.431524
-698.389	0.594396
-698.865	0.510072
-699.341	0.24245
-699.818	0.283977
-700.294	0.345317
-700.77	0.429832
-701.247	0.201813
-701.723	0.225891
-702.199	0.347053
-702.676	0.395164
-703.152	0.426766
-703.629	0.17707
-704.105	0.282231
-704.581	0.345518
-705.058	0.486776
-705.534	0.0658456
-706.011	0.608402
-706.488	0.136979
-706.964	0.235912
-707.441	0.0982667
-707.917	0.345036
-708.394	0.0272422
-708.871	0.427673
-709.347	0.0424322
-709.824	0.703202
-710.301	-0.0304467
-710.778	0.159478
-711.255	0.40647
-711.731	0.266099
-712.208	-0.0205644
-712.685	0.58127
-713.162	0.346312
-713.639	0.118242
-714.116	0.564709
-714.593	0.346792
-715.07	0.269069
-715.547	0.0958844
-716.024	0.0328433
-716.501	0.246063
-716.978	0.12604
-717.455	-0.0658633
-717.932	0.365281
-718.409	0.170926
-718.887	0.722537
-719.364	0.14191
-719.841	0.415531
-720.318	0.178904
-720.795	0.380933
-721.273	0.410597
-721.75	0.650787
-722.227	0.320457
-722.705	0.393359
-723.182	0.208337
-723.66	0.394044
-724.137	-0.0392133
-724.614	0.204478
-725.092	0.112349
-725.569	0.523253
-726.047	0.475446
-726.525	-0.143169
-727.002	-0.209181
-727.48	0.128474
-727.957	0.0270144
-728.435	0.123278
-728.913	0.377242
-729.39	0.601308
-729.868	0.222698
-730.346	0.273839
-730.823	-0.163177
-731.301	0.350102
-731.779	0.524923
-732.257	0.40872
-732.735	0.200517
-733.213	0.222952
-733.691	0.0584656
-734.168	0.167813
-734.646	0.0706922
-735.124	-0.0312567
-735.602	-0.435529
-736.08	0.00512889
-736.558	-0.197201
-737.036	0.261753
-737.515	-0.06318
-737.993	0.377039
-738.471	0.01347
-738.949	0.22434
-739.427	0.1853
-739.905	0.121801
-740.384	-0.0903933
-740.862	-0.512857
-741.34	-0.251777
-741.818	-0.0688222
-742.297	-0.154234
-742.775	-0.442857
-743.253	0.123922
-743.732	-0.277113
-744.21	0.0773322
-744.689	0.165581
-745.167	0.0498044
-745.646	-0.0965689
-746.124	-0.206326
-746.603	-0.353466
-747.081	-0.0711822
-747.56	-0.199719
-748.038	0.122078
-748.517	-0.113543
-748.996	-0.231161
-749.474	0.0531289
-749.953	0.0234456
-750.432	-0.341789
-750.91	-0.186106
-751.389	-0.126929
-751.868	-0.140351
-752.347	0.124004
-752.826	-0.0533767
-753.304	-0.276114
-753.783	0.16302
-754.262	0.0783189
-754.741	0.114387
-755.22	-0.365076
-755.699	-0.0427511
-756.178	0.265568
-756.657	0.256113
-757.136	0.168731
-757.615	0.0626211
-758.094	-0.147181
-758.573	-0.149919
-759.052	0.245853
-759.532	-0.257169
-760.011	0.279634
-760.49	-0.135432
-760.969	-0.421748
-761.448	-0.276008
-761.928	-0.187566
-762.407	-0.0741211
-762.886	-0.0956333
-763.366	-0.0528433
-763.845	-0.154464
-764.325	0.0138456
-764.804	-0.152914
-765.283	0.160916
-765.763	0.173763
-766.242	-0.211226
-766.722	-0.328501
-767.201	-0.1663
-767.681	-0.0709567
-768.161	-0.0103089
-768.64	0.0455278
-769.12	-0.137601
-769.599	0.0362022
-770.079	-0.311716
-770.559	-0.498979
-771.038	-0.152263
-771.518	-0.00481333
-771.998	-0.266844
-772.478	-0.272292
-772.958	0.135867
-773.437	0.205122
-773.917	-0.112537
-774.397	-0.228639
-774.877	0.175174
-775.357	0.380226
-775.837	0.232598
-776.317	0.0769656
-776.797	0.0520578
-777.277	0.00472444
-777.757	-0.31581
-778.237	-0.0173022
-778.717	-0.21002
-779.197	-0.0335089
-779.677	-0.449702
-780.158	-0.110596
-780.638	-0.0851233
-781.118	-0.136594
-781.598	-0.115544
-782.079	-0.433073
-782.559	-0.401052
-783.039	-0.177271
-783.52	-0.0399156
-784	-0.225729
-784.48	-0.111018
-784.961	-0.0397767
-785.441	-0.355692
-785.922	-0.115371
-786.402	0.200162
-786.882	-0.0554056
-787.363	0.224629
-787.844	0.166836
-788.324	-0.335731
-788.805	0.149381
-789.285	-0.15528
-789.766	-0.09693
-790.247	-0.244607
-790.727	-0.232288
-791.208	-0.109946
-791.689	-0.0381044
-792.17	-0.289947
-792.65	0.299801
-793.131	-0.262844
-793.612	-0.0776322
-794.093	0.0306511
-794.574	-0.288067
-795.055	-0.289217
-795.535	0.08725
-796.016	-0.0632444
-796.497	-0.0210244
-796.978	-0.0166767
-797.459	0.0130133
-797.94	0.00868444
-798.421	-0.0266667
-798.903	-0.346819
-799.384	0.138742
-799.865	0.111249
-800.346	-0.232753
-800.827	-0.157914
-801.308	-0.228063
-801.79	-0.549746
-802.271	-0.266148
-802.752	-0.348489
-803.233	0.00711667
-803.715	-0.189968
-804.196	0.02992
-804.677	0.0199467
-805.159	0.162636
-805.64	-0.142479
-806.122	-0.0312467
-806.603	0.11613
-807.085	-0.319623
-807.566	0.138149
-808.048	0.119212
-808.529	-0.502004
-809.011	-0.0544567
-809.492	-0.170758
-809.974	-0.170942
-810.456	-0.314613
-810.937	-0.0767722
-811.419	-0.414482
-811.901	-0.308887
-812.383	-0.646982
-812.864	-0.385582
-813.346	-0.128841
-813.828	-0.110611
-814.31	-0.382888
-814.792	-0.336314
-815.274	-0.161449
-815.755	-0.0550433
-816.237	-0.463788
-816.719	-0.596184
-817.201	0.114576
-817.683	0.0929111
-818.165	-0.0809078
-818.647	0.0127933
-819.13	-0.391389
-819.612	-0.139083