File: tomke/20240809_Si_on_TiO2/20240809/corrected Raman data export/S_40mA.txt
768.549	0.351111
768.142	0.605556
767.734	0.474
767.327	0.208
766.92	0.343778
766.512	0.572667
766.105	0.305778
765.697	0.588222
765.29	0.616444
764.882	0.396444
764.475	0.403333
764.067	0.425556
763.659	0.462222
763.252	0.126222
762.844	0.256889
762.437	0.371111
762.029	0.316222
761.621	0.407333
761.214	0.538444
760.806	0.505333
760.398	0.180667
759.99	0.186444
759.583	0.131111
759.175	0.349111
758.767	0.263778
758.359	0.431778
757.951	0.537778
757.544	0.551111
757.136	0.442444
756.728	0.355556
756.32	0.318444
755.912	0.405333
755.504	0.152667
755.096	0.327556
754.688	0.446222
754.28	0.370889
753.872	0.567778
753.464	0.611111
753.056	0.306667
752.648	0.567333
752.24	0.395333
751.832	0.505556
751.424	0.198667
751.015	0.515778
750.607	0.207778
750.199	0.268
749.791	0.216667
749.383	0.374222
748.974	0.585333
748.566	0.291111
748.158	0.603333
747.75	0.413778
747.341	0.222444
746.933	0.132
746.525	0.331778
746.116	0.500889
745.708	0.498222
745.299	0.489333
744.891	0.237111
744.483	0.214889
744.074	0.273778
743.666	0.346444
743.257	0.245333
742.849	0.427778
742.44	0.356222
742.032	0.205556
741.623	0.438222
741.214	0.302444
740.806	0.231778
740.397	0.243778
739.989	0.232444
739.58	0.0406667
739.171	0.174222
738.762	0.353111
738.354	0.153333
737.945	0.357556
737.536	0.243778
737.127	0.314667
736.719	0.144444
736.31	0.472889
735.901	0.428
735.492	0.272
735.083	0.449111
734.674	0.437111
734.266	0.448222
733.857	0.263556
733.448	0.426
733.039	0.451111
732.63	0.115556
732.221	0.274667
731.812	0.360889
731.403	0.197778
730.994	0.267556
730.585	0.374444
730.175	0.096
729.766	0.272889
729.357	0.298444
728.948	-0.0193333
728.539	0.350667
728.13	0.354444
727.721	0.318
727.311	0.416889
726.902	0.344222
726.493	0.380667
726.084	0.228444
725.674	0.297556
725.265	0.230222
724.856	0.200889
724.446	0.419111
724.037	0.367111
723.628	0.489111
723.218	0.456444
722.809	0.388
722.399	0.410667
721.99	0.256667
721.58	0.322667
721.171	0.372222
720.761	0.608
720.352	0.315333
719.942	0.306667
719.533	0.397333
719.123	0.164667
718.713	0.532667
718.304	0.165778
717.894	0.502667
717.485	0.206444
717.075	0.265556
716.665	0.150222
716.255	0.0606667
715.846	0.366667
715.436	0.148
715.026	0.260444
714.616	0.284
714.207	0.390444
713.797	0.00844444
713.387	0.426667
712.977	0.587556
712.567	0.453778
712.157	0.403556
711.747	0.631111
711.337	0.451111
710.927	0.187111
710.517	0.625333
710.107	0.0817778
709.697	0.313778
709.287	0.284667
708.877	0.420889
708.467	0.225778
708.057	0.334222
707.647	0.349111
707.237	0.25
706.827	0.448667
706.417	0.221111
706.006	0.0975556
705.596	0.262444
705.186	0.146444
704.776	0.236889
704.366	0.0255556
703.955	0.352889
703.545	0.465556
703.135	0.438444
702.724	0.407556
702.314	0.366
701.904	0.433333
701.493	0.339111
701.083	0.454222
700.672	0.355111
700.262	0.417556
699.852	0.111556
699.441	0.268444
699.031	0.257778
698.62	0.555333
698.21	0.404889
697.799	0.279556
697.388	0.184889
696.978	0.695556
696.567	0.276444
696.157	0.288889
695.746	0.272889
695.335	0.381556
694.925	0.599778
694.514	0.145556
694.103	0.298889
693.692	0.127778
693.282	0.223778
692.871	0.403111
692.46	0.153778
692.049	0.253111
691.638	0.296
691.228	0.422
690.817	0.391111
690.406	0.225333
689.995	0.261556
689.584	0.272889
689.173	0.345556
688.762	0.309111
688.351	0.528889
687.94	0.234667
687.529	0.215111
687.118	0.334667
686.707	0.293778
686.296	0.406222
685.885	0.437111
685.474	0.415778
685.063	0.462
684.651	0.317111
684.24	0.228222
683.829	0.262889
683.418	0.378667
683.007	0.244889
682.595	0.445333
682.184	0.350444
681.773	0.167111
681.362	0.351778
680.95	0.312
680.539	0.174
680.128	0.331556
679.716	0.367556
679.305	0.683556
678.893	0.276
678.482	0.467333
678.071	0.307778
677.659	0.304
677.248	0.296
676.836	0.188667
676.425	0.361556
676.013	0.265556
675.602	0.249778
675.19	0.467111
674.778	0.405778
674.367	0.494444
673.955	0.525333
673.543	0.394444
673.132	0.246
672.72	0.289111
672.308	0.537778
671.897	0.344222
671.485	0.320444
671.073	0.671556
670.661	0.351556
670.25	0.346
669.838	0.405111
669.426	0.336444
669.014	0.399778
668.602	0.608
668.19	0.436667
667.778	0.510889
667.366	0.798889
666.954	0.354667
666.543	0.384444
666.131	0.452667
665.719	0.665111
665.306	0.374
664.894	0.520889
664.482	0.665111
664.07	0.476667
663.658	0.369333
663.246	0.575778
662.834	0.590889
662.422	0.515111
662.01	0.578889
661.597	0.510444
661.185	0.126444
660.773	0.439556
660.361	0.361778
659.948	0.443556
659.536	0.49
659.124	0.338222
658.712	0.605556
658.299	0.625556
657.887	0.547778
657.474	0.511111
657.062	0.386444
656.65	0.767333
656.237	0.604667
655.825	0.142444
655.412	0.317556
655	0.507556
654.587	0.322889
654.175	0.494667
653.762	0.522889
653.35	0.780444
652.937	0.484667
652.524	0.439778
652.112	0.706222
651.699	0.591778
651.287	0.440444
650.874	0.387556
650.461	0.303111
650.048	0.445111
649.636	0.599111
649.223	0.538
648.81	0.650444
648.397	0.749333
647.985	0.398222
647.572	0.47
647.159	0.593778
646.746	0.649333
646.333	0.917111
645.92	0.522
645.507	0.788667
645.094	0.660667
644.681	0.440889
644.268	0.590222
643.855	0.770667
643.442	0.581778
643.029	0.726444
642.616	0.677333
642.203	0.545111
641.79	0.612667
641.377	0.781556
640.964	0.314667
640.551	0.393111
640.138	0.542889
639.724	0.668444
639.311	0.538222
638.898	0.705111
638.485	1.00644
638.072	0.850222
637.658	0.704667
637.245	0.732222
636.832	0.733333
636.418	0.710222
636.005	0.634
635.592	0.355778
635.178	0.380222
634.765	0.623111
634.351	0.658444
633.938	0.515778
633.524	0.691778
633.111	0.781333
632.697	0.422444
632.284	0.552
631.87	0.731556
631.457	0.758444
631.043	0.798889
630.63	0.752444
630.216	0.718444
629.802	0.555333
629.389	0.618
628.975	0.428
628.561	0.624444
628.148	0.726667
627.734	0.454667
627.32	0.640889
626.906	0.68
626.493	0.674222
626.079	0.584667
625.665	0.630222
625.251	0.749556
624.837	0.494222
624.423	0.542444
624.009	0.818444
623.596	0.344444
623.182	0.517778
622.768	0.825556
622.354	0.694889
621.94	0.482667
621.526	0.680222
621.112	0.615778
620.698	0.733333
620.284	0.566667
619.869	0.690222
619.455	0.658444
619.041	0.611111
618.627	0.546222
618.213	0.823778
617.799	0.462444
617.385	0.622667
616.97	0.742444
616.556	0.331333
616.142	0.297778
615.728	0.664667
615.313	0.737778
614.899	0.704222
614.485	0.526222
614.07	0.829556
613.656	0.642222
613.242	0.424444
612.827	0.596667
612.413	0.696444
611.998	0.462889
611.584	0.602222
611.169	0.539111
610.755	0.803333
610.34	0.744
609.926	0.643333
609.511	0.552444
609.097	0.541333
608.682	0.677111
608.267	0.636444
607.853	0.694444
607.438	0.836667
607.023	0.659333
606.609	0.69
606.194	0.381111
605.779	0.793333
605.365	0.884
604.95	0.697778
604.535	0.915556
604.12	0.613333
603.705	0.687778
603.291	0.474889
602.876	0.492667
602.461	0.749778
602.046	0.677556
601.631	0.656
601.216	0.745556
600.801	0.575333
600.386	0.542889
599.971	0.862667
599.556	0.607556
599.141	0.872
598.726	0.528
598.311	0.816
597.896	0.693778
597.481	0.425111
597.066	0.769778
596.651	0.578
596.235	0.733556
595.82	0.686222
595.405	0.593111
594.99	0.458667
594.575	0.504667
594.159	0.489111
593.744	0.520667
593.329	0.618444
592.913	0.476667
592.498	0.548889
592.083	0.848444
591.667	0.449778
591.252	0.518444
590.837	0.505333
590.421	0.604444
590.006	0.540222
589.59	0.581556
589.175	0.686667
588.759	0.600222
588.344	0.676
587.928	0.686222
587.513	0.559556
587.097	0.398444
586.681	0.492222
586.266	0.498222
585.85	0.745778
585.434	0.474222
585.019	0.367556
584.603	0.402222
584.187	0.285333
583.772	0.468
583.356	0.469333
582.94	0.340889
582.524	0.241556
582.109	0.351111
581.693	0.522222
581.277	0.431333
580.861	0.414444
580.445	0.5
580.029	0.394667
579.613	0.567778
579.197	0.245333
578.781	0.426222
578.365	0.428444
577.949	0.466889
577.533	0.460889
577.117	0.395111
576.701	0.496889
576.285	0.428222
575.869	0.536
575.453	0.535778
575.037	0.392889
574.621	0.239111
574.205	0.406
573.788	0.595333
573.372	0.259333
572.956	0.4
572.54	0.349778
572.124	0.460222
571.707	0.637333
571.291	0.764444
570.875	0.474444
570.458	0.548889
570.042	0.576222
569.626	0.548222
569.209	0.446222
568.793	0.524222
568.376	0.454444
567.96	0.254444
567.543	0.594222
567.127	0.443778
566.71	0.561556
566.294	0.568444
565.877	0.384222
565.461	0.369556
565.044	0.562889
564.628	0.428222
564.211	0.220444
563.794	0.628444
563.378	0.374667
562.961	0.427556
562.544	0.648444
562.128	0.329778
561.711	0.373778
561.294	0.473333
560.877	0.519333
560.461	0.300889
560.044	0.145778
559.627	0.372444
559.21	0.530889
558.793	0.490889
558.376	0.484889
557.959	0.393111
557.543	0.444667
557.126	0.422889
556.709	0.437111
556.292	0.568
555.875	0.590222
555.458	0.497333
555.041	0.498222
554.623	0.271778
554.206	0.429778
553.789	0.699556
553.372	0.315778
552.955	0.441333
552.538	0.497556
552.121	0.647333
551.704	0.723556
551.286	0.659556
550.869	0.646444
550.452	0.498222
550.035	0.398444
549.617	0.378444
549.2	0.562667
548.783	0.572889
548.365	0.486889
547.948	0.554444
547.531	0.504
547.113	0.396
546.696	0.528444
546.278	0.657556
545.861	0.549778
545.443	0.51
545.026	0.698222
544.608	0.651778
544.191	0.285556
543.773	0.492889
543.356	0.487111
542.938	0.613778
542.521	0.442444
542.103	0.751333
541.685	0.744222
541.268	0.686444
540.85	0.783333
540.432	0.824444
540.014	0.891556
539.597	0.811556
539.179	0.728889
538.761	1.00333
538.343	0.939778
537.926	0.821333
537.508	0.610444
537.09	0.686222
536.672	0.903556
536.254	0.963333
535.836	0.855778
535.418	0.847778
535	1.02067
534.582	1.02022
534.164	0.750222
533.746	1.00711
533.328	0.824222
532.91	1.18533
532.492	1.00689
532.074	0.945111
531.656	1.00978
531.238	0.810222
530.82	1.19533
530.402	1.12
529.983	0.917333
529.565	1.19689
529.147	1.29644
528.729	1.204
528.31	1.20267
527.892	1.27178
527.474	1.09911
527.056	1.43711
526.637	1.51333
526.219	1.40844
525.8	1.644
525.382	1.41467
524.964	1.56111
524.545	1.35689
524.127	1.76178
523.708	1.36
523.29	1.68089
522.871	1.734
522.453	1.63956
522.034	1.85444
521.616	1.99933
521.197	1.75267
520.778	1.97022
520.36	2.04133
519.941	2.27889
519.523	2.25556
519.104	2.318
518.685	2.43156
518.266	2.46222
517.848	2.34889
517.429	2.57889
517.01	2.97133
516.591	3.22889
516.173	3.32556
515.754	3.45822
515.335	3.55511
514.916	3.698
514.497	3.67422
514.078	4.09511
513.659	4.41378
513.24	4.566
512.821	4.86644
512.402	5.38022
511.983	5.59111
511.564	6.17978
511.145	6.38022
510.726	7.34733
510.307	7.69044
509.888	8.424
509.469	8.85422
509.05	9.69689
508.631	10.1533
508.211	10.8269
507.792	11.4929
507.373	12.4571
506.954	12.9502
506.535	13.7902
506.115	14.3447
505.696	15.4582
505.277	15.956
504.857	16.6313
504.438	16.7622
504.019	17.2242
503.599	17.7207
503.18	17.7489
502.76	17.6504
502.341	17.3304
501.922	17.1227
501.502	16.6213
501.083	16.5098
500.663	15.8711
500.243	15.2193
499.824	14.7302
499.404	14.1956
498.985	13.2051
498.565	12.8424
498.145	12.0767
497.726	11.6529
497.306	10.8624
496.886	10.4778
496.467	9.58356
496.047	8.91156
495.627	8.31311
495.207	8.03689
494.788	7.48622
494.368	6.88622
493.948	6.708
493.528	6.498
493.108	6.008
492.688	5.59533
492.268	5.144
491.849	5.168
491.429	4.84511
491.009	4.67156
490.589	4.27489
490.169	4.15622
489.749	4.14044
489.329	4.01911
488.909	3.72378
488.488	3.56622
488.068	3.43111
487.648	3.33711
487.228	3.22533
486.808	2.85756
486.388	3.13289
485.968	2.98378
485.547	2.85022
485.127	2.62133
484.707	2.69333
484.287	2.406
483.866	2.46178
483.446	2.03889
483.026	2.392
482.605	2.25956
482.185	1.95289
481.765	2.06489
481.344	2.18822
480.924	1.97089
480.503	1.85089
480.083	1.85311
479.662	1.96289
479.242	1.81933
478.821	1.72667
478.401	1.93689
477.98	1.80422
477.56	1.88267
477.139	1.82422
476.718	1.90578
476.298	1.62244
475.877	1.49556
475.456	1.86356
475.036	1.55422
474.615	1.75556
474.194	1.50933
473.774	1.46467
473.353	1.42733
472.932	1.59778
472.511	1.34
472.09	1.47356
471.669	1.45022
471.249	1.46889
470.828	1.48444
470.407	1.51822
469.986	1.31733
469.565	1.31689
469.144	1.30111
468.723	1.50333
468.302	1.39733
467.881	1.58733
467.46	1.26
467.039	1.24933
466.618	1.05378
466.197	1.25089
465.776	1.22689
465.354	1.04133
464.933	1.33289
464.512	1.11889
464.091	1.034
463.67	0.997333
463.248	0.932222
462.827	1.29733
462.406	1.30244
461.985	1.17289
461.563	1.186
461.142	1.32311
460.721	1.02533
460.299	0.801778
459.878	0.920667
459.456	0.873111
459.035	0.942889
458.614	1.14578
458.192	0.862222
457.771	0.851556
457.349	0.842667
456.928	0.666667
456.506	0.865333
456.084	0.909556
455.663	0.911111
455.241	0.798444
454.82	1.07156
454.398	0.872
453.976	0.580667
453.555	0.814889
453.133	0.882889
452.711	0.760444
452.289	0.683333
451.868	0.816667
451.446	0.823556
451.024	0.79
450.602	0.614667
450.18	0.889111
449.759	0.835556
449.337	0.728
448.915	0.937778
448.493	0.67
448.071	0.636
447.649	0.626222
447.227	0.717556
446.805	0.453556
446.383	0.712
445.961	0.908889
445.539	0.925556
445.117	0.688889
444.695	0.742444
444.273	0.730222
443.851	0.734667
443.428	0.641111
443.006	0.955111
442.584	0.681556
442.162	1.054
441.74	0.912889
441.317	0.718
440.895	0.914667
440.473	0.706444
440.051	0.928
439.628	0.706222
439.206	0.650444
438.784	0.915111
438.361	0.769111
437.939	0.694222
437.516	0.850222
437.094	1.01689
436.671	0.656
436.249	0.782
435.827	0.783333
435.404	0.806222
434.981	0.936889
434.559	0.580222
434.136	0.729333
433.714	0.807333
433.291	0.641778
432.869	0.749111
432.446	0.866
432.023	0.738
431.601	0.458667
431.178	0.890444
430.755	0.899333
430.332	0.873556
429.91	0.658222
429.487	0.916222
429.064	0.804
428.641	0.954667
428.218	0.803556
427.795	0.938222
427.373	0.904889
426.95	1.00111
426.527	0.963111
426.104	0.921111
425.681	0.905778
425.258	1.05022
424.835	1.01556
424.412	0.990444
423.989	0.994222
423.566	1.07489
423.143	1.07333
422.72	0.969333
422.296	0.853556
421.873	1.03644
421.45	1.18378
421.027	1.16667
420.604	1.15778
420.181	1.05133
419.757	0.875556
419.334	1.01133
418.911	1.06711
418.488	0.821556
418.064	1.18133
417.641	1.03533
417.218	1.06667
416.794	1.23022
416.371	1.10844
415.947	0.994667
415.524	1.01133
415.1	1.13578
414.677	0.986889
414.254	1.30533
413.83	1.26444
413.407	1.07867
412.983	1.00978
412.559	1.18156
412.136	0.654667
411.712	0.920444
411.289	0.748444
410.865	0.822222
410.441	0.942667
410.018	1.008
409.594	1.10333
409.17	0.869778
408.746	0.958667
408.323	1.10444
407.899	0.989778
407.475	0.879778
407.051	1.08578
406.627	0.941333
406.204	0.759111
405.78	0.914667
405.356	1.04844
404.932	0.976889
404.508	1.00244
404.084	1.14622
403.66	1.12467
403.236	1.11178
402.812	1.14111
402.388	1.12378
401.964	0.962
401.54	0.854889
401.116	0.864444
400.692	0.625333
400.268	0.894667
399.843	0.866
399.419	1.15689
398.995	1.15622
398.571	1.19244
398.147	1.02822
397.722	1.18644
397.298	1.05689
396.874	1.14711
396.45	1.09556
396.025	1.104
395.601	0.982222
395.176	0.889556
394.752	0.961556
394.328	1.11933
393.903	0.962222
393.479	1.04511
393.054	1.12178
392.63	1.24133
392.205	0.984889
391.781	0.932444
391.356	1.106
390.932	1.17889
390.507	0.764667
390.083	1.10933
389.658	1.08711
389.233	0.752889
388.809	0.967778
388.384	1.01267
387.959	0.995111
387.535	1.04467
387.11	1.10844
386.685	0.813333
386.26	0.86
385.836	0.968444
385.411	0.954667
384.986	1.18978
384.561	0.769778
384.136	1.14022
383.711	0.985333
383.286	1.21467
382.861	1.00444
382.437	0.666667
382.012	1.05156
381.587	1.00756
381.162	1.02733
380.737	1.16978
380.311	0.965333
379.886	0.932222
379.461	0.935333
379.036	0.896222
378.611	0.850889
378.186	0.976889
377.761	0.788
377.336	0.871556
376.91	0.87
376.485	1.04489
376.06	0.791778
375.635	0.844889
375.209	0.876
374.784	1.102
374.359	0.996889
373.933	0.702222
373.508	0.894444
373.083	1.02978
372.657	1.05822
372.232	0.864222
371.806	0.852222
371.381	1.21933
370.955	1.09333
370.53	1.01733
370.104	1.03044
369.679	0.956222
369.253	0.978667
368.828	0.930222
368.402	0.998222
367.977	1.07222
367.551	0.901111
367.125	0.943333
366.7	0.880222
366.274	0.945778
365.848	0.889333
365.422	0.904444
364.997	1.21311
364.571	0.96
364.145	1.15822
363.719	1.06733
363.294	0.976889
362.868	1.07289
362.442	0.936222
362.016	1.10089
361.59	1.10022
361.164	0.989556
360.738	1.11911
360.312	0.899778
359.886	1.146
359.46	1.136
359.034	1.13311
358.608	1.28556
358.182	1.05778
357.756	1.27111
357.33	1.1
356.904	0.931556
356.478	1.02244
356.051	1.02667
355.625	1.02156
355.199	0.990444
354.773	1.22267
354.347	1.11289
353.92	0.916222
353.494	1.062
353.068	1.09733
352.641	1.06111
352.215	1.16556
351.789	1.00178
351.362	1.30689
350.936	0.955556
350.509	1.11244
350.083	1.22022
349.657	1.444
349.23	1.03089
348.804	0.911333
348.377	1.12356
347.95	1.14378
347.524	1.26933
347.097	1.06533
346.671	1.14867
346.244	1.06556
345.817	1.10311
345.391	1.08356
344.964	1.20467
344.537	1.08578
344.111	1.32889
343.684	1.348
343.257	1.142
342.83	1.29
342.404	1.26467
341.977	1.42133
341.55	0.992
341.123	1.27156
340.696	1.09
340.269	1.26289
339.842	1.37933
339.416	1.33267
338.989	1.22933
338.562	1.23844
338.135	1.34178
337.708	1.32022
337.281	1.28133
336.854	1.22622
336.426	1.24133
335.999	1.35311
335.572	1.30822
335.145	1.20978
334.718	1.34489
334.291	1.19533
333.864	1.35933
333.436	1.25356
333.009	1.51244
332.582	1.25978
332.155	1.266
331.727	1.20133
331.3	1.47422
330.873	1.14067
330.445	1.24
330.018	1.15711
329.591	1.19022
329.163	1.19156
328.736	1.41044
328.308	1.31978
327.881	1.46867
327.453	1.48822
327.026	1.608
326.598	1.55467
326.171	1.39133
325.743	1.56978
325.316	1.38889
324.888	1.51844
324.46	1.30667
324.033	1.35289
323.605	1.30356
323.178	1.41711
322.75	1.27778
322.322	1.32911
321.894	1.32378
321.467	1.46978
321.039	1.49689
320.611	1.29711
320.183	1.53889
319.755	1.47867
319.327	1.34667
318.9	1.56289
318.472	1.50756
318.044	1.56978
317.616	1.59867
317.188	1.65756
316.76	1.59222
316.332	1.706
315.904	1.63022
315.476	1.37178
315.048	1.32156
314.62	1.72489
314.192	1.58533
313.763	1.61622
313.335	1.66556
312.907	1.55178
312.479	1.65356
312.051	1.80156
311.623	1.62578
311.194	1.74689
310.766	1.83933
310.338	1.71022
309.91	1.73822
309.481	1.68422
309.053	1.84667
308.625	1.92467
308.196	1.94822
307.768	1.87911
307.339	1.74556
306.911	1.96222
306.482	1.90844
306.054	2.144
305.625	1.89333
305.197	1.93378
304.768	1.74089
304.34	1.80333
303.911	2.14067
303.483	1.82733
303.054	2.078
302.625	2.02756
302.197	1.99178
301.768	1.97644
301.339	1.83467
300.911	2.08267
300.482	1.942
300.053	1.90733
299.624	1.99178
299.196	2.11489
298.767	2.154
298.338	2.09556
297.909	2.15711
297.48	2.16889
297.051	2.18956
296.623	2.24089
296.194	2.15422
295.765	2.21467
295.336	2.22867
294.907	2.09422
294.478	2.42133
294.049	2.42844
293.62	2.45778
293.191	2.54733
292.761	2.52244
292.332	2.37911
291.903	2.28822
291.474	2.33178
291.045	2.41156
290.616	2.57178
290.186	2.69022
289.757	2.32133
289.328	2.70711
288.899	2.34311
288.469	2.53689
288.04	2.442
287.611	2.502
287.181	2.39467
286.752	2.18178
286.323	2.05156
285.893	2.218
285.464	2.32911
285.034	2.15689
284.605	2.13733
284.175	2.01378
283.746	1.94578
283.316	1.91822
282.887	1.93044
282.457	2.12578
282.028	2.08267
281.598	1.99689
281.169	1.97956
280.739	2.00867
280.309	2.00089
279.88	1.96733
279.45	1.84889
279.02	2.02778
278.59	2.23111
278.161	1.86956
277.731	1.79778
277.301	1.96178
276.871	1.93711
276.441	1.93822
276.011	1.95667
275.582	2.03756
275.152	2.07356
274.722	2.06911
274.292	1.97222
273.862	1.90533
273.432	2.04311
273.002	1.98778
272.572	1.93289
272.142	1.73644
271.712	1.71222
271.282	1.85022
270.852	1.76578
270.421	1.67378
269.991	1.79222
269.561	1.36044
269.131	1.45311
268.701	1.52956
268.271	1.27711
267.84	1.24511
267.41	1.17778
266.98	1.28778
266.549	1.05222
266.119	1.02711
265.689	0.931778
265.258	0.894667
264.828	0.822667
264.398	0.648444
263.967	0.591778
263.537	0.504
263.106	0.359778
262.676	0.387111
262.245	0.389333
261.815	0.387111
261.384	0.274
260.954	0.28
260.523	0.112
260.092	0.0673333
259.662	0.0204444
259.231	-0.0126667
258.801	0.0391111
258.37	-0.0255556
257.939	0.0151111
257.508	-0.130444
257.078	-0.176222
256.647	-0.136
256.216	-0.270222
255.785	-0.278
255.355	-0.322222
254.924	-0.313556
254.493	-0.334
254.062	-0.316444
253.631	-0.342222
253.2	-0.384
252.769	-0.340444
252.338	-0.456889
251.907	-0.391333
251.476	-0.401778
251.045	-0.394889
250.614	-0.373111
250.183	-0.355111
249.752	-0.434889
249.321	-0.411778
248.89	-0.439111
248.459	-0.415333
248.028	-0.391111
247.596	-0.477333
247.165	-0.376
246.734	-0.441111
246.303	-0.495111
245.871	-0.44
245.44	-0.429778
245.009	-0.495556
244.578	-0.506444
244.146	-0.443111
243.715	-0.479556
243.283	-0.467556
242.852	-0.489778
242.421	-0.553778
241.989	-0.51
241.558	-0.49
241.126	-0.525111
240.695	-0.498222
240.263	-0.488444
239.832	-0.447778
239.4	-0.486444
238.969	-0.462667
238.537	-0.465778
238.105	-0.445111
237.674	-0.379111
237.242	-0.513333
236.81	-0.442444
236.379	-0.428444
235.947	-0.473556
235.515	-0.512889
235.083	-0.516
234.652	-0.560667
234.22	-0.472222
233.788	-0.479333
233.356	-0.538
232.924	-0.56
232.492	-0.532667
232.061	-0.538
231.629	-0.499111
231.197	-0.405778
230.765	-0.503778
230.333	-0.446444
229.901	-0.504222
229.469	-0.536444
229.037	-0.521778
228.605	-0.563333
228.172	-0.534
227.74	-0.520889
227.308	-0.532
226.876	-0.45
226.444	-0.497111
226.012	-0.420444
225.58	-0.500444
225.147	-0.472667
224.715	-0.521333
224.283	-0.494222
223.851	-0.512
223.418	-0.549111
222.986	-0.506222
222.554	-0.512889
222.121	-0.488667
221.689	-0.482222
221.256	-0.444889
220.824	-0.519778
220.392	-0.474444
219.959	-0.491556
219.527	-0.476222
219.094	-0.474222
218.662	-0.468
218.229	-0.469111
217.796	-0.526222
217.364	-0.468
216.931	-0.518444
216.499	-0.525333
216.066	-0.573556
215.633	-0.573778
215.201	-0.503556
214.768	-0.526667
214.335	-0.555333
213.902	-0.499333
213.47	-0.536
213.037	-0.505556
212.604	-0.478667
212.171	-0.619556
211.738	-0.492889
211.306	-0.572444
210.873	-0.539111
210.44	-0.502222
210.007	-0.486667
209.574	-0.586222
209.141	-0.478444
208.708	-0.528889
208.275	-0.506222
207.842	-0.549556
207.409	-0.580889
206.976	-0.550222
206.543	-0.586667
206.11	-0.471111