File: tomke/20240809_Si_on_TiO2/20240809/corrected Raman data export/S_50mA.txt
768.549	1.54424
768.142	1.11802
767.734	1.17084
767.327	1.50173
766.92	1.19077
766.512	1.3314
766.105	1.06454
765.697	1.48756
765.29	1.03774
764.882	1.32668
764.475	0.873111
764.067	0.912284
763.659	0.92603
763.252	1.08258
762.844	1.09732
762.437	0.937493
762.029	1.06467
761.621	1.28696
761.214	1.02952
760.806	1.22027
760.398	1.21427
759.99	1.15189
759.583	1.20615
759.175	1.2494
758.767	1.11073
758.359	1.43647
757.951	1.26087
757.544	1.13947
757.136	1.40157
756.728	1.0968
756.32	0.894772
755.912	1.11978
755.504	1.08583
755.096	1.32712
754.688	1.2696
754.28	1.01775
753.872	1.06213
753.464	1.08568
753.056	1.06026
752.648	1.34665
752.24	0.924093
751.832	1.28646
751.424	1.06082
751.015	1.03122
750.607	0.966891
750.199	1.24479
749.791	1.16539
749.383	0.899897
748.974	0.937217
748.566	0.949491
748.158	1.21088
747.75	1.07161
747.341	0.922096
746.933	1.29881
746.525	1.47645
746.116	0.823947
745.708	1.02298
745.299	1.12093
744.891	1.10222
744.483	0.976622
744.074	1.4784
743.666	0.904744
743.257	1.27541
742.849	0.897392
742.44	1.16912
742.032	0.650474
741.623	1.09653
741.214	0.966912
740.806	0.943422
740.397	0.896438
739.989	1.30877
739.58	1.07538
739.171	1.19506
738.762	1.24509
738.354	1.26353
737.945	1.2115
737.536	1.02053
737.127	1.30694
736.719	1.13124
736.31	0.785144
735.901	0.799103
735.492	1.18874
735.083	0.691811
734.674	0.949794
734.266	1.04871
733.857	1.06436
733.448	1.18414
733.039	1.05353
732.63	1.19099
732.221	1.12879
731.812	1.09042
731.403	1.36711
730.994	1.37519
730.585	1.09198
730.175	1.13911
729.766	1.15286
729.357	1.19918
728.948	1.18568
728.539	0.914316
728.13	0.9956
727.721	1.15603
727.311	0.825953
726.902	0.928437
726.493	1.30773
726.084	0.96567
725.674	1.13355
725.265	1.12648
724.856	1.31074
724.446	1.2153
724.037	1.08777
723.628	0.920264
723.218	1.17484
722.809	1.1189
722.399	1.29121
721.99	1.03225
721.58	0.927324
721.171	1.03337
720.761	1.11918
720.352	0.741474
719.942	0.897353
719.533	0.962758
719.123	0.684433
718.713	0.993657
718.304	1.22759
717.894	1.14412
717.485	1.17205
717.075	0.772327
716.665	0.933104
716.255	1.05831
715.846	1.2495
715.436	1.15586
715.026	0.889616
714.616	0.750247
714.207	1.0853
713.797	0.977012
713.387	1.03419
712.977	1.08872
712.567	1.19121
712.157	1.03673
711.747	0.814404
711.337	1.11048
710.927	0.839301
710.517	0.994153
710.107	0.986264
709.697	1.37925
709.287	1.08641
708.877	0.899727
708.467	1.0678
708.057	0.957086
707.647	0.982926
707.237	0.893292
706.827	1.13548
706.417	0.971032
706.006	0.921346
705.596	0.796252
705.186	0.880368
704.776	1.01264
704.366	0.99589
703.955	0.738352
703.545	1.05845
703.135	0.939972
702.724	0.786457
702.314	0.694976
701.904	0.729632
701.493	1.05868
701.083	0.879648
700.672	0.836883
700.262	0.995582
699.852	0.944086
699.441	1.03472
699.031	1.11825
698.62	0.926751
698.21	0.803741
697.799	0.867594
697.388	0.948989
696.978	0.782293
696.567	1.05492
696.157	0.935772
695.746	1.18239
695.335	0.898441
694.925	0.984489
694.514	1.2173
694.103	0.949196
693.692	1.0205
693.282	1.03456
692.871	0.969703
692.46	0.872081
692.049	0.709597
691.638	1.27053
691.228	1.08907
690.817	1.20877
690.406	0.978384
689.995	1.12926
689.584	1.12722
689.173	0.666967
688.762	1.01266
688.351	1.13234
687.94	1.15093
687.529	1.20527
687.118	1.00773
686.707	1.15167
686.296	0.949812
685.885	0.907903
685.474	1.22612
685.063	0.948317
684.651	0.942001
684.24	1.04049
683.829	1.20895
683.418	1.04462
683.007	1.06085
682.595	1.1368
682.184	0.925287
681.773	0.811238
681.362	1.12478
680.95	1.36356
680.539	1.25406
680.128	0.861544
679.716	0.859969
679.305	1.09392
678.893	1.11654
678.482	1.02719
678.071	1.17076
677.659	1.18619
677.248	1.1692
676.836	1.17332
676.425	0.608517
676.013	0.982209
675.602	0.983403
675.19	1.10975
674.778	1.07526
674.367	1.12111
673.955	1.06103
673.543	1.11867
673.132	0.82305
672.72	0.844781
672.308	0.89956
671.897	0.998063
671.485	1.40853
671.073	1.08703
670.661	1.15613
670.25	1.14275
669.838	0.906812
669.426	1.13548
669.014	1.03952
668.602	1.03287
668.19	0.902584
667.778	1.0717
667.366	1.05869
666.954	1.09453
666.543	0.86603
666.131	0.661763
665.719	0.908513
665.306	0.984968
664.894	1.03948
664.482	0.981869
664.07	0.848207
663.658	0.752226
663.246	1.04542
662.834	0.888077
662.422	0.991287
662.01	1.01952
661.597	1.36621
661.185	0.782147
660.773	0.957468
660.361	1.17571
659.948	1.17002
659.536	0.784982
659.124	0.851364
658.712	0.906842
658.299	0.921376
657.887	0.657964
657.474	0.886429
657.062	0.983312
656.65	1.05462
656.237	0.751509
655.825	0.753524
655.412	1.05711
655	1.40098
654.587	1.14215
654.175	0.934016
653.762	0.926359
653.35	0.96066
652.937	0.95515
652.524	1.24267
652.112	0.841838
651.699	0.99525
651.287	0.866428
650.874	0.837694
650.461	1.26087
650.048	1.08115
649.636	1.20467
649.223	0.975079
648.81	1.24932
648.397	1.05413
647.985	0.958268
647.572	1.08058
647.159	1.02828
646.746	1.26214
646.333	0.99557
645.92	1.12981
645.507	0.853149
645.094	1.13856
644.681	0.928482
644.268	0.937606
643.855	1.00382
643.442	0.867511
643.029	1.1018
642.616	1.22461
642.203	1.07107
641.79	1.05911
641.377	0.806729
640.964	0.958024
640.551	0.861291
640.138	1.03512
639.724	1.13912
639.311	1.18567
638.898	1.06656
638.485	1.43939
638.072	1.15239
637.658	1.37551
637.245	1.38655
636.832	1.09179
636.418	1.15217
636.005	1.1594
635.592	0.746227
635.178	1.20933
634.765	1.02845
634.351	1.11362
633.938	0.882928
633.524	1.19656
633.111	1.12169
632.697	1.25426
632.284	1.11681
631.87	1.33956
631.457	1.4428
631.043	1.26146
630.63	1.16468
630.216	1.25963
629.802	1.17017
629.389	0.842521
628.975	1.12544
628.561	1.07525
628.148	1.12954
627.734	1.13824
627.32	1.14543
626.906	1.03081
626.493	1.19541
626.079	1.19726
625.665	1.17141
625.251	1.15992
624.837	1.00321
624.423	1.40512
624.009	1.11214
623.596	1.03554
623.182	0.726357
622.768	0.653843
622.354	0.819019
621.94	1.11855
621.526	0.863993
621.112	0.782569
620.698	0.820882
620.284	1.04352
619.869	0.922021
619.455	0.941037
619.041	1.21209
618.627	1.17312
618.213	0.581566
617.799	1.10082
617.385	1.11854
616.97	0.890961
616.556	1.10338
616.142	1.2314
615.728	1.20694
615.313	1.10202
614.899	1.18342
614.485	0.73615
614.07	0.840282
613.656	0.690818
613.242	0.889923
612.827	1.20176
612.413	0.872881
611.998	0.849781
611.584	1.02592
611.169	1.12885
610.755	1.15424
610.34	0.873101
609.926	1.1462
609.511	0.801293
609.097	0.86179
608.682	0.956742
608.267	0.840493
607.853	0.93936
607.438	0.714819
607.023	1.15798
606.609	0.893712
606.194	0.786163
605.779	1.34269
605.365	1.18889
604.95	1.13863
604.535	1.26758
604.12	1.1568
603.705	1.19505
603.291	1.01401
602.876	1.14266
602.461	0.9588
602.046	0.881357
601.631	1.13922
601.216	1.13451
600.801	0.94258
600.386	0.753339
599.971	1.1066
599.556	1.11037
599.141	1.07131
598.726	0.948611
598.311	1.04575
597.896	0.861311
597.481	0.662617
597.066	0.953678
596.651	0.858056
596.235	0.908184
595.82	0.898247
595.405	0.810077
594.99	1.15628
594.575	0.63607
594.159	1.07638
593.744	0.878447
593.329	1.06828
592.913	0.867419
592.498	0.89327
592.083	1.05492
591.667	0.99367
591.252	0.848694
590.837	0.958443
590.421	1.07356
590.006	1.03942
589.59	0.679061
589.175	0.90145
588.759	0.963264
588.344	0.913894
587.928	0.989427
587.513	0.842386
587.097	0.759174
586.681	1.10147
586.266	0.804692
585.85	0.599589
585.434	1.04106
585.019	0.753553
584.603	0.655887
584.187	0.998382
583.772	0.70928
583.356	0.632334
582.94	0.736706
582.524	0.876918
582.109	0.718988
581.693	0.674723
581.277	0.659043
580.861	0.827362
580.445	0.698697
580.029	1.02828
579.613	0.576567
579.197	0.650241
578.781	0.687433
578.365	0.721269
577.949	0.835801
577.533	0.590401
577.117	0.966218
576.701	0.593704
576.285	0.772464
575.869	0.660494
575.453	0.625709
575.037	0.319188
574.621	0.708718
574.205	0.76195
573.788	0.628048
573.372	0.521326
572.956	0.685373
572.54	0.574711
572.124	0.704319
571.707	0.669834
571.291	0.660282
570.875	0.653034
570.458	0.674673
570.042	0.707416
569.626	0.528677
569.209	0.794524
568.793	0.881474
568.376	0.692777
567.96	1.14682
567.543	0.870939
567.127	0.697523
566.71	0.613687
566.294	0.6755
565.877	0.549048
565.461	0.40099
565.044	0.480119
564.628	0.517908
564.211	0.454676
563.794	0.703446
563.378	0.726632
562.961	0.753718
562.544	0.689954
562.128	0.804124
561.711	0.590874
561.294	0.600062
560.877	0.316896
560.461	0.615851
560.044	0.737247
559.627	0.53972
559.21	0.499282
558.793	0.89175
558.376	0.519344
557.959	0.697676
557.543	0.42246
557.126	0.540517
556.709	0.572393
556.292	0.669634
555.875	0.542861
555.458	0.824519
555.041	0.783652
554.623	0.79211
554.206	0.573009
553.789	0.719938
553.372	0.882433
552.955	0.496633
552.538	0.834071
552.121	0.754974
551.704	0.941406
551.286	0.63943
550.869	0.753019
550.452	0.953514
550.035	0.818701
549.617	0.71677
549.2	0.846562
548.783	0.707736
548.365	0.742883
547.948	0.473738
547.531	0.803742
547.113	0.853167
546.696	0.754848
546.278	0.640667
545.861	0.670951
545.443	0.560929
545.026	0.603464
544.608	0.854412
544.191	0.913267
543.773	0.734457
543.356	0.572194
542.938	0.579151
542.521	0.815896
542.103	0.676274
541.685	0.412266
541.268	0.693449
540.85	0.835883
540.432	0.568877
540.014	0.750674
539.597	0.53969
539.179	0.77864
538.761	0.874608
538.343	0.781676
537.926	0.637309
537.508	0.569883
537.09	0.933339
536.672	1.0261
536.254	0.838898
535.836	0.705977
535.418	0.975976
535	0.889561
534.582	0.988188
534.164	0.790772
533.746	0.72042
533.328	0.966774
532.91	0.834042
532.492	0.970016
532.074	1.08576
531.656	1.01716
531.238	0.996591
530.82	1.14895
530.402	1.06402
529.983	1.22713
529.565	1.29773
529.147	1.09387
528.729	1.10578
528.31	1.12519
527.892	0.70204
527.474	1.05431
527.056	0.857304
526.637	1.30573
526.219	0.992586
525.8	1.14698
525.382	1.42319
524.964	1.27146
524.545	1.25357
524.127	1.4733
523.708	1.40015
523.29	1.56411
522.871	1.43191
522.453	1.41826
522.034	1.4084
521.616	1.51997
521.197	1.70422
520.778	1.72753
520.36	1.67442
519.941	1.65162
519.523	1.96416
519.104	1.76798
518.685	1.71973
518.266	1.96001
517.848	2.44396
517.429	2.3296
517.01	2.41416
516.591	2.46392
516.173	2.5138
515.754	2.63413
515.335	2.94352
514.916	3.04141
514.497	3.24639
514.078	3.10254
513.659	3.43582
513.24	3.79053
512.821	4.01316
512.402	4.24527
511.983	4.50546
511.564	4.96557
511.145	5.32194
510.726	5.94721
510.307	5.90356
509.888	6.09888
509.469	7.03923
509.05	7.41582
508.631	7.96236
508.211	8.69555
507.792	8.95628
507.373	9.8326
506.954	10.2003
506.535	10.9211
506.115	11.5834
505.696	12.3495
505.277	12.8585
504.857	13.3773
504.438	13.8604
504.019	13.6259
503.599	14.3884
503.18	14.2934
502.76	14.394
502.341	14.4031
501.922	14.4399
501.502	14.2324
501.083	13.8682
500.663	13.4972
500.243	13.2194
499.824	12.703
499.404	12.3801
498.985	11.6739
498.565	11.1816
498.145	10.3565
497.726	9.94501
497.306	9.33472
496.886	8.40705
496.467	8.26025
496.047	7.71993
495.627	7.22601
495.207	7.01433
494.788	6.6796
494.368	5.82485
493.948	5.75935
493.528	5.7731
493.108	5.27765
492.688	5.03128
492.268	4.66444
491.849	4.58403
491.429	4.36278
491.009	3.85462
490.589	4.27488
490.169	3.84841
489.749	3.46815
489.329	3.69468
488.909	3.21904
488.488	3.22426
488.068	2.833
487.648	3.0493
487.228	2.61476
486.808	2.78995
486.388	2.61314
485.968	2.38423
485.547	2.25508
485.127	2.30937
484.707	2.17322
484.287	2.14358
483.866	1.8846
483.446	1.77446
483.026	1.80566
482.605	1.71777
482.185	1.91413
481.765	1.97212
481.344	1.75269
480.924	1.78396
480.503	1.8001
480.083	1.79447
479.662	1.57226
479.242	1.86587
478.821	1.75145
478.401	1.68613
477.98	1.58137
477.56	1.47597
477.139	1.59002
476.718	1.54486
476.298	1.55733
475.877	1.35868
475.456	1.3378
475.036	1.40355
474.615	1.25037
474.194	1.37226
473.774	1.1364
473.353	1.17072
472.932	1.11404
472.511	0.975956
472.09	1.00279
471.669	1.09483
471.249	1.11781
470.828	0.981854
470.407	1.14547
469.986	1.48758
469.565	0.992486
469.144	1.09448
468.723	1.09476
468.302	1.05095
467.881	1.33709
467.46	0.886723
467.039	1.16093
466.618	0.787467
466.197	0.578913
465.776	0.999768
465.354	0.956512
464.933	0.753798
464.512	0.921051
464.091	0.821196
463.67	1.00232
463.248	1.0218
462.827	0.909771
462.406	0.835784
461.985	0.746928
461.563	0.894459
461.142	0.891404
460.721	0.989618
460.299	0.751577
459.878	0.65433
459.456	1.01652
459.035	0.446073
458.614	0.751014
458.192	0.544604
457.771	0.668724
457.349	0.459942
456.928	0.8486
456.506	0.373529
456.084	0.83258
455.663	0.923658
455.241	0.525532
454.82	0.565834
454.398	0.561702
453.976	0.544114
453.555	0.514454
453.133	0.641952
452.711	0.552811
452.289	0.309523
451.868	0.295373
451.446	0.353386
451.024	0.751281
450.602	0.365334
450.18	0.446293
449.759	0.434546
449.337	0.634216
448.915	0.583227
448.493	0.521256
448.071	0.321161
447.649	0.591318
447.227	0.422384
446.805	0.366253
446.383	0.336812
445.961	0.258329
445.539	0.463989
445.117	0.56109
444.695	0.777371
444.273	0.531401
443.851	0.559118
443.428	0.606723
443.006	0.261476
442.584	0.386523
442.162	0.34935
441.74	0.206519
441.317	0.367154
440.895	0.500376
440.473	0.295644
440.051	0.379687
439.628	0.630301
439.206	0.437119
438.784	0.242908
438.361	0.263947
437.939	0.0623378
437.516	0.564437
437.094	0.780511
436.671	0.299149
436.249	0.15442
435.827	0.679164
435.404	0.578461
434.981	0.657886
434.559	0.418517
434.136	0.538109
433.714	0.323034
433.291	0.276849
432.869	0.392678
432.446	0.297312
432.023	0.463047
431.601	0.669718
431.178	0.593726
430.755	0.558237
430.332	0.332171
429.91	0.587626
429.487	0.416862
429.064	0.630474
428.641	0.686124
428.218	0.446209
427.795	0.299123
427.373	0.39293
426.95	0.811963
426.527	0.597732
426.104	0.573546
425.681	0.345367
425.258	0.688309
424.835	0.552376
424.412	0.424961
423.989	1.00663
423.566	0.284787
423.143	0.688851
422.72	0.7964
422.296	0.484144
421.873	0.506897
421.45	0.629973
421.027	0.612738
420.604	0.505093
420.181	0.52712
419.757	0.848493
419.334	0.642776
418.911	0.889901
418.488	0.966981
418.064	0.600609
417.641	0.678879
417.218	0.915847
416.794	0.593764
416.371	0.622386
415.947	0.728333
415.524	0.361667
415.1	0.68677
414.677	0.880041
414.254	0.847338
413.83	0.404557
413.407	0.584317
412.983	0.694508
412.559	0.737522
412.136	0.584709
411.712	0.396006
411.289	0.628731
410.865	0.679228
410.441	0.482607
410.018	0.538737
409.594	0.81126
409.17	0.424883
408.746	0.610243
408.323	0.531404
407.899	0.621796
407.475	0.522817
407.051	0.607339
406.627	0.822894
406.204	0.662716
405.78	0.313816
405.356	0.682799
404.932	0.510113
404.508	0.758689
404.084	0.53937
403.66	0.801508
403.236	0.748163
402.812	0.397654
402.388	0.67182
401.964	0.427291
401.54	0.689083
401.116	0.504594
400.692	0.734338
400.268	0.586102
399.843	0.453797
399.419	0.452294
398.995	0.430803
398.571	0.557682
398.147	0.556939
397.722	0.590612
397.298	0.461936
396.874	0.494654
396.45	0.633236
396.025	0.350388
395.601	0.476039
395.176	0.537987
394.752	0.472017
394.328	0.527834
393.903	1.00151
393.479	0.738709
393.054	0.33957
392.63	0.534099
392.205	0.410158
391.781	0.51601
391.356	0.608349
390.932	0.515344
390.507	0.490046
390.083	0.419094
389.658	0.676269
389.233	0.434126
388.809	0.384879
388.384	0.39585
387.959	0.420278
387.535	0.574598
387.11	0.628053
386.685	0.503609
386.26	0.554222
385.836	0.618091
385.411	0.373101
384.986	0.576003
384.561	0.588934
384.136	0.410034
383.711	0.613022
383.286	0.466478
382.861	0.343899
382.437	0.357403
382.012	0.480473
381.587	0.542131
381.162	0.528954
380.737	0.541053
380.311	0.504807
379.886	0.732272
379.461	0.482529
379.036	0.60313
378.611	0.423102
378.186	0.289706
377.761	0.612201
377.336	0.605204
376.91	0.466399
376.485	0.576314
376.06	0.443306
375.635	0.419721
375.209	0.444947
374.784	0.374137
374.359	0.535303
373.933	0.521948
373.508	0.606084
373.083	0.355276
372.657	0.512317
372.232	0.435951
371.806	0.366671
371.381	0.651551
370.955	0.638106
370.53	0.478608
370.104	0.57207
369.679	0.41675
369.253	0.306292
368.828	0.367476
368.402	0.437704
367.977	0.407196
367.551	0.480444
367.125	0.77356
366.7	0.352789
366.274	0.452409
365.848	0.58232
365.422	0.496674
364.997	0.625078
364.571	0.573241
364.145	0.496118
363.719	0.560931
363.294	0.443271
362.868	0.534041
362.442	0.611568
362.016	0.501371
361.59	0.512867
361.164	0.855246
360.738	0.672057
360.312	0.755217
359.886	0.677596
359.46	0.503832
359.034	0.659818
358.608	0.53955
358.182	0.621248
357.756	0.606964
357.33	0.635194
356.904	0.499292
356.478	0.686444
356.051	0.579438
355.625	0.64337
355.199	0.597581
354.773	0.554113
354.347	0.481496
353.92	0.671974
353.494	0.584463
353.068	0.389302
352.641	0.647242
352.215	0.674667
351.789	0.740446
351.362	0.523188
350.936	0.523283
350.509	0.5057
350.083	0.600536
349.657	0.317699
349.23	0.589077
348.804	0.746329
348.377	0.544548
347.95	0.684738
347.524	0.330382
347.097	0.513341
346.671	0.579277
346.244	0.59367
345.817	0.769426
345.391	0.697577
344.964	0.627627
344.537	0.607191
344.111	0.575996
343.684	0.666487
343.257	0.463913
342.83	0.380892
342.404	0.714034
341.977	0.467463
341.55	0.549127
341.123	0.611782
340.696	0.38042
340.269	0.411179
339.842	0.633679
339.416	0.75427
338.989	0.650289
338.562	0.61002
338.135	0.937066
337.708	0.827317
337.281	0.616624
336.854	0.473291
336.426	0.631553
335.999	0.49775
335.572	0.725499
335.145	0.653784
334.718	0.668139
334.291	0.470836
333.864	0.521176
333.436	0.679069
333.009	0.39015
332.582	0.578118
332.155	0.487313
331.727	0.672561
331.3	0.669357
330.873	0.131379
330.445	0.331064
330.018	0.602393
329.591	0.759859
329.163	0.32834
328.736	0.715637
328.308	0.467613
327.881	0.60927
327.453	0.368203
327.026	0.605807
326.598	0.443456
326.171	0.5468
325.743	0.60355
325.316	0.546636
324.888	0.463219
324.46	0.578758
324.033	0.484843
323.605	0.733654
323.178	0.557284
322.75	0.639088
322.322	0.488919
321.894	0.502123
321.467	0.53984
321.039	0.868863
320.611	0.409662
320.183	0.504972
319.755	0.673034
319.327	0.689489
318.9	0.592348
318.472	0.543302
318.044	0.559568
317.616	0.32303
317.188	0.679282
316.76	0.494184
316.332	0.788232
315.904	0.780292
315.476	0.687439
315.048	0.503844
314.62	0.996536
314.192	0.677396
313.763	0.692907
313.335	0.81657
312.907	0.785537
312.479	0.676134
312.051	0.609774
311.623	0.596452
311.194	0.807183
310.766	0.796664
310.338	0.888306
309.91	0.835034
309.481	0.759328
309.053	0.953588
308.625	0.955297
308.196	0.975649
307.768	0.682444
307.339	1.01241
306.911	0.782508
306.482	0.727662
306.054	0.932196
305.625	0.863848
305.197	0.943317
304.768	0.954322
304.34	0.958286
303.911	0.825572
303.483	1.09186
303.054	1.16636
302.625	1.03032
302.197	1.21784
301.768	1.09024
301.339	1.14546
300.911	1.09455
300.482	1.04337
300.053	0.874049
299.624	1.24192
299.196	0.852842
298.767	1.06908
298.338	0.99187
297.909	0.801723
297.48	0.904508
297.051	1.24518
296.623	1.28556
296.194	1.23089
295.765	1.22305
295.336	1.33726
294.907	1.06296
294.478	1.00885
294.049	1.24792
293.62	1.39679
293.191	1.43179
292.761	1.11335
292.332	1.28852
291.903	1.293
291.474	1.31879
291.045	1.24621
290.616	0.960857
290.186	1.22133
289.757	1.03998
289.328	1.29687
288.899	1.05567
288.469	0.9588
288.04	1.19417
287.611	0.938574
287.181	0.778138
286.752	0.858439
286.323	0.900441
285.893	0.854488
285.464	0.831551
285.034	0.84131
284.605	0.788684
284.175	0.866346
283.746	0.405396
283.316	0.894981
282.887	0.617371
282.457	0.626032
282.028	0.59161
281.598	0.495334
281.169	0.283967
280.739	0.444653
280.309	0.47094
279.88	0.564312
279.45	0.380493
279.02	0.618612
278.59	0.519064
278.161	0.622849
277.731	0.45913
277.301	0.680872
276.871	0.459722
276.441	0.405317
276.011	0.501994
275.582	0.645623
275.152	0.252914
274.722	0.682796
274.292	0.693487
273.862	0.483112
273.432	0.449576
273.002	0.396363
272.572	0.524726
272.142	0.538883
271.712	0.433559
271.282	0.195829
270.852	-0.0816344
270.421	-0.111538
269.991	0.110081
269.561	-0.0920233
269.131	-0.230918
268.701	-0.258082
268.271	-0.460367
267.84	-0.482718
267.41	-0.496778
266.98	-0.677683
266.549	-0.589287
266.119	-1.00994
265.689	-0.972577
265.258	-1.19938
264.828	-1.4206
264.398	-1.53411
263.967	-1.57094
263.537	-1.54411
263.106	-1.79829
262.676	-1.89968
262.245	-2.06747
261.815	-2.20459
261.384	-2.26487
260.954	-2.38022
260.523	-2.27144
260.092	-2.37008
259.662	-2.48899
259.231	-2.67731
258.801	-2.68728
258.37	-2.71207
257.939	-2.79455
257.508	-2.91704
257.078	-2.86843
256.647	-2.97345
256.216	-3.04791
255.785	-3.04571
255.355	-3.06463
254.924	-3.25102
254.493	-3.3013
254.062	-3.35421
253.631	-3.26706
253.2	-3.22006
252.769	-3.37747
252.338	-3.3406
251.907	-3.40074
251.476	-3.34296
251.045	-3.41153
250.614	-3.40438
250.183	-3.48245
249.752	-3.48002
249.321	-3.4556
248.89	-3.42964
248.459	-3.45864
248.028	-3.54576
247.596	-3.52358
247.165	-3.56346
246.734	-3.54984
246.303	-3.50546
245.871	-3.59779
245.44	-3.53725
245.009	-3.57008
244.578	-3.63017
244.146	-3.4832
243.715	-3.64401
243.283	-3.54906
242.852	-3.55252
242.421	-3.53821
241.989	-3.59574
241.558	-3.55502
241.126	-3.54681
240.695	-3.53655
240.263	-3.60034
239.832	-3.60652
239.4	-3.59168
238.969	-3.54624
238.537	-3.61195
238.105	-3.58046
237.674	-3.55782
237.242	-3.63861
236.81	-3.65573
236.379	-3.6057
235.947	-3.64065
235.515	-3.61388
235.083	-3.58765
234.652	-3.59032
234.22	-3.57744
233.788	-3.63364
233.356	-3.58519
232.924	-3.57944
232.492	-3.60055
232.061	-3.62227
231.629	-3.63299
231.197	-3.56125
230.765	-3.67187
230.333	-3.60292
229.901	-3.62341
229.469	-3.60055
229.037	-3.6672
228.605	-3.64737
228.172	-3.69454
227.74	-3.55744
227.308	-3.60495
226.876	-3.65589
226.444	-3.68036
226.012	-3.68327
225.58	-3.62615
225.147	-3.66397
224.715	-3.62434
224.283	-3.69698
223.851	-3.64715
223.418	-3.64116
222.986	-3.64602
222.554	-3.67468
222.121	-3.66772
221.689	-3.58947
221.256	-3.63455
220.824	-3.58007
220.392	-3.53209
219.959	-3.62365
219.527	-3.63434
219.094	-3.53806
218.662	-3.63298
218.229	-3.6519
217.796	-3.64528
217.364	-3.53902
216.931	-3.64343
216.499	-3.60514
216.066	-3.59085
215.633	-3.57821
215.201	-3.60377
214.768	-3.66916
214.335	-3.59476
213.902	-3.58169
213.47	-3.63007
213.037	-3.64632
212.604	-3.6284
212.171	-3.65796
211.738	-3.65878
211.306	-3.60838
210.873	-3.62794
210.44	-3.67301
210.007	-3.63099
209.574	-3.63946
209.141	-3.6042
208.708	-3.69949
208.275	-3.59923
207.842	-3.66172
207.409	-3.66143
206.976	-3.63405
206.543	-3.59313
206.11	-3.68459