File: tomke/20240809_Si_on_TiO2/20240809/corrected Raman data export/S_60mA.txt
768.549	1.34378
768.142	1.12218
767.734	0.972338
767.327	0.696609
766.92	1.69424
766.512	1.7801
766.105	1.42317
765.697	1.70111
765.29	1.69668
764.882	1.58645
764.475	1.43448
764.067	1.01636
763.659	1.22354
763.252	1.17859
762.844	1.71728
762.437	0.913298
762.029	1.39961
761.621	1.08661
761.214	1.50107
760.806	1.80679
760.398	0.97168
759.99	0.66984
759.583	1.44896
759.175	1.15505
758.767	1.39639
758.359	1.59136
757.951	1.06051
757.544	1.08474
757.136	1.08987
756.728	0.865142
756.32	1.20869
755.912	0.758067
755.504	1.5176
755.096	1.24255
754.688	1.50395
754.28	1.34675
753.872	1.24733
753.464	1.26672
753.056	1.21912
752.648	1.00015
752.24	1.48967
751.832	1.09363
751.424	0.985551
751.015	1.58872
750.607	0.835864
750.199	1.47553
749.791	1.45954
749.383	1.77788
748.974	1.88246
748.566	1.5508
748.158	1.13152
747.75	1.18432
747.341	1.41548
746.933	1.29409
746.525	1.4918
746.116	1.06056
745.708	1.10618
745.299	1.68216
744.891	1.23111
744.483	1.33988
744.074	1.45784
743.666	1.47106
743.257	1.31291
742.849	1.33725
742.44	1.40309
742.032	0.914167
741.623	1.68397
741.214	1.52377
740.806	1.61984
740.397	1.07228
739.989	1.54965
739.58	1.01221
739.171	0.875007
738.762	1.10548
738.354	1.38267
737.945	1.09549
737.536	0.807973
737.127	0.893042
736.719	1.18348
736.31	1.01164
735.901	1.00131
735.492	0.972036
735.083	1.17986
734.674	1.45854
734.266	1.2654
733.857	1.3428
733.448	1.51878
733.039	1.02232
732.63	1.13851
732.221	1.6628
731.812	1.28892
731.403	1.15402
730.994	1.19972
730.585	0.629229
730.175	1.29258
729.766	0.987213
729.357	0.405564
728.948	1.24296
728.539	1.15098
728.13	0.733911
727.721	1.24639
727.311	1.47631
726.902	1.07066
726.493	1.27725
726.084	1.31903
725.674	1.53848
725.265	0.762024
724.856	0.868802
724.446	1.37572
724.037	0.595696
723.628	0.994707
723.218	0.9742
722.809	0.935084
722.399	0.877124
721.99	1.19971
721.58	1.21033
721.171	1.04957
720.761	0.977967
720.352	1.11885
719.942	1.39233
719.533	0.93312
719.123	1.0119
718.713	0.85552
718.304	1.69148
717.894	1.18806
717.485	1.26946
717.075	0.799329
716.665	1.04108
716.255	0.670976
715.846	0.892982
715.436	0.978631
715.026	1.1636
714.616	0.988911
714.207	1.70546
713.797	1.40877
713.387	1.20496
712.977	0.642751
712.567	0.8848
712.157	0.91856
711.747	1.06435
711.337	1.20758
710.927	1.13317
710.517	1.16807
710.107	0.999693
709.697	1.09855
709.287	1.30111
708.877	0.825304
708.467	1.07524
708.057	1.35137
707.647	0.597227
707.237	0.813887
706.827	1.32948
706.417	0.935336
706.006	1.58201
705.596	1.3501
705.186	1.48838
704.776	0.684507
704.366	1.52468
703.955	1.4058
703.545	0.834158
703.135	1.02077
702.724	1.45395
702.314	0.776376
701.904	1.41431
701.493	1.3293
701.083	0.936493
700.672	1.29783
700.262	1.29436
699.852	0.956038
699.441	0.845376
699.031	1.57
698.62	1.00602
698.21	1.39388
697.799	1.41751
697.388	1.14812
696.978	0.589182
696.567	1.568
696.157	1.14587
695.746	1.04505
695.335	1.2285
694.925	0.629538
694.514	1.15235
694.103	0.97588
693.692	1.17896
693.282	1.3959
692.871	2.27534
692.46	1.15964
692.049	1.01473
691.638	1.1609
691.228	1.29862
690.817	0.748809
690.406	0.995933
689.995	1.15448
689.584	1.06953
689.173	1.81357
688.762	0.702767
688.351	1.10744
687.94	1.28414
687.529	1.33612
687.118	0.750284
686.707	1.14517
686.296	0.746967
685.885	1.25539
685.474	1.14968
685.063	0.75386
684.651	0.990664
684.24	0.83142
683.829	1.36804
683.418	1.14512
683.007	0.826431
682.595	1.22729
682.184	1.03244
681.773	0.914736
681.362	0.760389
680.95	1.01687
680.539	1.15792
680.128	0.966942
679.716	1.02182
679.305	0.789296
678.893	1.02532
678.482	1.3092
678.071	1.25969
677.659	1.35234
677.248	1.05843
676.836	1.26562
676.425	1.30029
676.013	1.20622
675.602	1.36284
675.19	0.950944
674.778	1.49268
674.367	0.811727
673.955	1.31644
673.543	0.9179
673.132	0.605173
672.72	1.02941
672.308	1.78636
671.897	0.949962
671.485	0.984209
671.073	1.20538
670.661	0.878216
670.25	0.533033
669.838	0.745187
669.426	1.11429
669.014	1.15008
668.602	0.994867
668.19	1.14576
667.778	0.776653
667.366	1.13637
666.954	1.02461
666.543	1.26435
666.131	1.61456
665.719	1.03448
665.306	1.26937
664.894	0.64748
664.482	0.999604
664.07	0.519698
663.658	1.15096
663.246	1.22875
662.834	1.22559
662.422	1.11592
662.01	1.70918
661.597	1.63986
661.185	0.91704
660.773	0.906636
660.361	0.95992
659.948	0.919107
659.536	1.45895
659.124	0.6289
658.712	0.639384
658.299	0.607256
657.887	0.499158
657.474	0.767207
657.062	0.934087
656.65	1.31933
656.237	1.36623
655.825	1.05228
655.412	1.3519
655	1.39708
654.587	0.907307
654.175	1.33418
653.762	0.667429
653.35	0.949222
652.937	1.2647
652.524	1.39756
652.112	1.04174
651.699	0.456516
651.287	0.880802
650.874	1.15406
650.461	1.56635
650.048	0.922829
649.636	0.768349
649.223	1.16049
648.81	0.799078
648.397	1.04401
647.985	1.50587
647.572	0.695709
647.159	0.916593
646.746	1.30619
646.333	1.36065
645.92	0.650516
645.507	1.3983
645.094	1.05312
644.681	1.18962
644.268	1.19976
643.855	1.18871
643.442	1.30924
643.029	1.73496
642.616	1.11727
642.203	1.54084
641.79	0.847507
641.377	0.954396
640.964	1.0839
640.551	1.80249
640.138	1.5863
639.724	0.797102
639.311	1.30369
638.898	1.49776
638.485	0.900313
638.072	0.993387
637.658	0.99454
637.245	1.13921
636.832	1.48942
636.418	1.14162
636.005	1.15071
635.592	0.869633
635.178	1.12557
634.765	0.762378
634.351	1.05385
633.938	1.04891
633.524	1.46742
633.111	1.53508
632.697	1.18121
632.284	1.2799
631.87	1.51301
631.457	1.22372
631.043	0.86198
630.63	1.40489
630.216	1.75462
629.802	1.34027
629.389	1.41545
628.975	1.28291
628.561	0.621907
628.148	0.927169
627.734	0.870731
627.32	1.07805
626.906	0.709798
626.493	1.6583
626.079	1.26526
625.665	1.11558
625.251	1.24085
624.837	0.180967
624.423	2.02791
624.009	1.39119
623.596	1.18608
623.182	1.12522
622.768	1.45444
622.354	1.08428
621.94	0.851947
621.526	1.24939
621.112	1.24753
620.698	1.03252
620.284	1.16826
619.869	1.12491
619.455	0.953847
619.041	0.910971
618.627	1.23772
618.213	1.1666
617.799	1.04731
617.385	1.08818
616.97	1.13486
616.556	0.52178
616.142	0.935067
615.728	1.34471
615.313	1.07953
614.899	0.65262
614.485	1.61574
614.07	1.07371
613.656	1.27997
613.242	0.927462
612.827	0.894
612.413	1.38153
611.998	1.68818
611.584	1.00089
611.169	1.1564
610.755	1.27178
610.34	0.914176
609.926	0.889231
609.511	0.856222
609.097	1.10957
608.682	0.744182
608.267	0.764124
607.853	0.697371
607.438	0.757887
607.023	1.42849
606.609	0.938847
606.194	1.06578
605.779	0.818751
605.365	0.930949
604.95	1.02557
604.535	0.509951
604.12	0.896053
603.705	1.23826
603.291	0.97996
602.876	0.868096
602.461	0.809449
602.046	1.15374
601.631	0.577604
601.216	0.783002
600.801	1.01616
600.386	1.64832
599.971	1.55355
599.556	0.796169
599.141	0.97648
598.726	0.855402
598.311	0.973398
597.896	0.669631
597.481	1.24914
597.066	1.16586
596.651	0.855304
596.235	0.953029
595.82	0.889149
595.405	1.39482
594.99	1.28155
594.575	0.940707
594.159	1.07733
593.744	0.743682
593.329	0.759927
592.913	0.833422
592.498	0.914502
592.083	1.10338
591.667	0.657524
591.252	1.07664
590.837	0.950518
590.421	0.603776
590.006	0.452396
589.59	0.488202
589.175	0.684442
588.759	0.0170711
588.344	0.769784
587.928	0.641438
587.513	0.951762
587.097	0.382318
586.681	0.650431
586.266	0.0979578
585.85	1.11977
585.434	0.351444
585.019	0.883236
584.603	0.388373
584.187	0.890276
583.772	1.01016
583.356	0.68574
582.94	0.639464
582.524	0.613947
582.109	0.621696
581.693	-0.283096
581.277	0.838016
580.861	0.938
580.445	0.782442
580.029	0.89008
579.613	0.313916
579.197	0.685687
578.781	0.425958
578.365	0.496176
577.949	0.476142
577.533	-0.0174533
577.117	0.624713
576.701	0.5504
576.285	0.0586467
575.869	0.444758
575.453	-0.0123289
575.037	1.16442
574.621	0.742016
574.205	0.930373
573.788	0.336969
573.372	0.530491
572.956	0.521864
572.54	0.35684
572.124	0.657013
571.707	0.858247
571.291	0.843647
570.875	0.437271
570.458	0.17832
570.042	0.179513
569.626	0.16638
569.209	0.28338
568.793	0.388113
568.376	0.368371
567.96	0.728751
567.543	0.0243778
567.127	0.921089
566.71	0.562933
566.294	0.290282
565.877	0.677102
565.461	0.713391
565.044	0.617662
564.628	0.569309
564.211	0.586773
563.794	0.289631
563.378	0.361713
562.961	0.441836
562.544	0.515338
562.128	0.941742
561.711	1.06861
561.294	0.312178
560.877	0.714093
560.461	0.736709
560.044	0.597769
559.627	0.731436
559.21	0.860067
558.793	0.909871
558.376	0.44726
557.959	0.379229
557.543	0.178622
557.126	0.450882
556.709	-0.219
556.292	0.263482
555.875	0.0177444
555.458	0.687844
555.041	0.717873
554.623	0.54288
554.206	0.448611
553.789	0.889673
553.372	0.519287
552.955	0.564349
552.538	0.477864
552.121	0.445444
551.704	0.33804
551.286	0.167676
550.869	0.490833
550.452	0.48954
550.035	0.360947
549.617	0.853622
549.2	0.743498
548.783	0.392976
548.365	0.520742
547.948	0.536411
547.531	0.508413
547.113	0.259196
546.696	0.77966
546.278	0.561993
545.861	0.358264
545.443	0.832549
545.026	0.409036
544.608	0.509464
544.191	0.358647
543.773	0.135069
543.356	0.870116
542.938	0.861378
542.521	0.258651
542.103	0.660793
541.685	0.651916
541.268	0.517693
540.85	0.813478
540.432	0.926264
540.014	0.869518
539.597	0.587153
539.179	0.169233
538.761	0.721282
538.343	0.348756
537.926	0.691962
537.508	0.622347
537.09	0.488702
536.672	0.867996
536.254	1.11864
535.836	0.819144
535.418	0.514596
535	0.608453
534.582	0.506856
534.164	0.441711
533.746	0.874633
533.328	0.685796
532.91	0.748796
532.492	1.33509
532.074	0.601547
531.656	0.583282
531.238	0.822342
530.82	0.705744
530.402	1.03613
529.983	0.973431
529.565	0.785767
529.147	0.987909
528.729	1.19571
528.31	0.949644
527.892	1.23619
527.474	1.07777
527.056	1.11713
526.637	1.32236
526.219	1.21093
525.8	1.30652
525.382	1.05244
524.964	1.09661
524.545	1.11124
524.127	1.48752
523.708	1.87906
523.29	1.4333
522.871	1.43753
522.453	1.37603
522.034	1.29826
521.616	1.62843
521.197	1.26806
520.778	1.74453
520.36	1.57084
519.941	1.6072
519.523	1.98995
519.104	2.13827
518.685	2.09687
518.266	2.27013
517.848	2.33486
517.429	2.31358
517.01	2.3353
516.591	2.5697
516.173	2.43308
515.754	2.80288
515.335	3.17438
514.916	2.86613
514.497	3.44664
514.078	3.38526
513.659	3.74485
513.24	4.25448
512.821	3.95186
512.402	4.30979
511.983	4.42246
511.564	5.32658
511.145	4.78983
510.726	5.69028
510.307	6.27167
509.888	6.36209
509.469	7.16518
509.05	7.65625
508.631	8.23696
508.211	8.40873
507.792	9.36764
507.373	10.1163
506.954	10.5246
506.535	11.0109
506.115	11.921
505.696	12.2969
505.277	13.6086
504.857	14.3828
504.438	14.7233
504.019	14.8986
503.599	15.7285
503.18	15.8797
502.76	16.3358
502.341	16.2987
501.922	16.0517
501.502	15.9493
501.083	16.0483
500.663	15.9753
500.243	15.4627
499.824	14.9124
499.404	14.6645
498.985	14.1895
498.565	13.6357
498.145	13.2393
497.726	12.052
497.306	11.6875
496.886	11.2739
496.467	10.4931
496.047	9.61538
495.627	9.12563
495.207	8.60624
494.788	8.21041
494.368	7.37668
493.948	7.55379
493.528	7.19588
493.108	6.36961
492.688	6.27273
492.268	6.08054
491.849	5.72115
491.429	5.47355
491.009	4.93743
490.589	5.19781
490.169	4.22722
489.749	4.12568
489.329	3.89446
488.909	3.47552
488.488	3.75902
488.068	3.93818
487.648	3.26987
487.228	3.40862
486.808	3.05752
486.388	3.18114
485.968	3.08988
485.547	2.33961
485.127	2.7305
484.707	2.58476
484.287	2.43148
483.866	2.55347
483.446	2.1645
483.026	2.10546
482.605	1.72608
482.185	1.99056
481.765	1.92862
481.344	2.04912
480.924	1.99345
480.503	1.39871
480.083	1.90004
479.662	1.73255
479.242	1.84563
478.821	1.6877
478.401	1.82773
477.98	1.55349
477.56	1.221
477.139	1.28117
476.718	2.05502
476.298	1.53162
475.877	1.28766
475.456	1.65354
475.036	1.665
474.615	1.00719
474.194	1.45684
473.774	1.40023
473.353	1.13894
472.932	0.819409
472.511	1.45977
472.09	1.06044
471.669	1.23517
471.249	1.0498
470.828	0.954022
470.407	1.23638
469.986	0.737718
469.565	0.935231
469.144	0.908418
468.723	0.960327
468.302	1.21776
467.881	0.978044
467.46	1.01194
467.039	1.00384
466.618	1.39109
466.197	0.830156
465.776	0.743049
465.354	1.10318
464.933	0.72906
464.512	0.515531
464.091	0.238129
463.67	0.923216
463.248	0.378884
462.827	0.861767
462.406	0.497678
461.985	0.992762
461.563	0.846576
461.142	0.374249
460.721	1.04897
460.299	0.928002
459.878	0.847964
459.456	0.599349
459.035	0.436264
458.614	0.661793
458.192	0.346924
457.771	0.696513
457.349	0.327222
456.928	0.736709
456.506	0.445627
456.084	0.839973
455.663	0.591329
455.241	0.831127
454.82	0.556716
454.398	0.34446
453.976	0.698084
453.555	0.49842
453.133	0.546604
452.711	0.376082
452.289	0.135853
451.868	0.296951
451.446	0.258896
451.024	-0.0250422
450.602	0.0570333
450.18	0.0902844
449.759	0.307471
449.337	0.0272444
448.915	0.261282
448.493	0.219516
448.071	0.426378
447.649	0.532022
447.227	0.791342
446.805	0.07754
446.383	-0.175471
445.961	0.0169022
445.539	0.10442
445.117	-0.186556
444.695	-0.0624689
444.273	0.148811
443.851	-0.162418
443.428	0.224678
443.006	0.0792178
442.584	0.01512
442.162	0.0134267
441.74	-0.0962333
441.317	0.0768667
440.895	0.351229
440.473	0.178769
440.051	0.105556
439.628	-0.250464
439.206	0.117811
438.784	0.0217378
438.361	0.420693
437.939	0.139753
437.516	0.561478
437.094	0.00231778
436.671	-0.0420289
436.249	0.110691
435.827	0.718929
435.404	-0.0355489
434.981	0.182269
434.559	0.00196444
434.136	0.49584
433.714	0.0989733
433.291	0.02494
432.869	0.0680578
432.446	0.408198
432.023	0.0644378
431.601	0.288709
431.178	0.562387
430.755	0.552062
430.332	0.280316
429.91	0.184578
429.487	0.164031
429.064	0.423116
428.641	-0.0488333
428.218	0.119407
427.795	0.449582
427.373	0.683493
426.95	0.116858
426.527	0.156327
426.104	0.559816
425.681	0.315482
425.258	-0.103438
424.835	0.0662311
424.412	0.377118
423.989	0.88664
423.566	0.390187
423.143	0.476176
422.72	0.530669
422.296	0.448053
421.873	0.234493
421.45	0.36636
421.027	-0.0711867
420.604	0.516849
420.181	0.761422
419.757	0.731438
419.334	0.958318
418.911	0.828649
418.488	0.733996
418.064	0.0750756
417.641	-0.0854689
417.218	0.0709311
416.794	0.604542
416.371	0.888996
415.947	0.469742
415.524	0.275687
415.1	0.699702
414.677	0.613269
414.254	0.423473
413.83	0.46872
413.407	0.332469
412.983	0.546222
412.559	0.146084
412.136	0.367976
411.712	0.39268
411.289	0.199469
410.865	0.289349
410.441	0.631393
410.018	0.620876
409.594	0.597936
409.17	0.230749
408.746	0.114584
408.323	0.105358
407.899	0.481487
407.475	0.0267844
407.051	0.611344
406.627	0.377878
406.204	-0.143942
405.78	0.07448
405.356	0.176213
404.932	0.296493
404.508	0.12988
404.084	0.312422
403.66	0.257287
403.236	0.474516
402.812	0.339218
402.388	0.736789
401.964	0.184767
401.54	0.429416
401.116	0.478731
400.692	0.557729
400.268	0.478122
399.843	0.28172
399.419	0.37488
398.995	0.407304
398.571	0.0820556
398.147	-0.0232667
397.722	0.64242
397.298	0.503018
396.874	0.460271
396.45	0.578636
396.025	0.587978
395.601	0.641382
395.176	0.723933
394.752	0.319973
394.328	0.000426667
393.903	0.125936
393.479	0.0187222
393.054	-0.07628
392.63	0.0829933
392.205	0.115982
391.781	0.373382
391.356	0.334738
390.932	0.0692867
390.507	0.276231
390.083	-0.126413
389.658	-0.134131
389.233	0.2927
388.809	-0.157178
388.384	-0.0272556
387.959	0.780133
387.535	0.07088
387.11	0.175582
386.685	-0.0215844
386.26	0.230649
385.836	0.105316
385.411	0.234782
384.986	-0.224351
384.561	0.376262
384.136	0.212247
383.711	0.06086
383.286	0.0409378
382.861	0.451542
382.437	0.185244
382.012	0.0109378
381.587	0.0671689
381.162	0.548218
380.737	0.411567
380.311	0.0110622
379.886	0.297811
379.461	0.492856
379.036	0.145784
378.611	0.0823756
378.186	-0.141271
377.761	-0.0285111
377.336	0.390111
376.91	0.15626
376.485	0.2312
376.06	-0.0990289
375.635	0.547658
375.209	0.160798
374.784	-0.28052
374.359	-0.195104
373.933	0.311431
373.508	0.606776
373.083	0.0378956
372.657	-0.0435756
372.232	0.254464
371.806	0.162129
371.381	0.104009
370.955	0.0482489
370.53	-0.0913356
370.104	0.04436
369.679	0.318933
369.253	-0.332551
368.828	0.0979911
368.402	0.174987
367.977	-0.0964622
367.551	0.539142
367.125	0.272213
366.7	0.177836
366.274	0.40686
365.848	0.704456
365.422	-0.0369867
364.997	0.158838
364.571	0.48752
364.145	0.324889
363.719	0.779856
363.294	0.479102
362.868	0.10702
362.442	0.425013
362.016	0.208773
361.59	0.0885578
361.164	0.111418
360.738	0.106342
360.312	0.101222
359.886	0.0801711
359.46	0.1107
359.034	0.0807378
358.608	0.0624911
358.182	0.174642
357.756	0.462638
357.33	0.200747
356.904	0.228258
356.478	0.199038
356.051	0.423767
355.625	0.377731
355.199	0.155284
354.773	0.353913
354.347	0.414967
353.92	0.109933
353.494	0.221831
353.068	0.0683267
352.641	0.157413
352.215	0.606809
351.789	0.271189
351.362	0.117218
350.936	0.143351
350.509	0.462162
350.083	0.108687
349.657	0.365787
349.23	0.527173
348.804	0.462924
348.377	0.526618
347.95	-0.0098
347.524	0.120551
347.097	0.5799
346.671	0.0783733
346.244	0.0786089
345.817	0.0928333
345.391	-0.15578
344.964	0.334582
344.537	0.0798711
344.111	-0.0103133
343.684	0.538071
343.257	-0.257527
342.83	-0.0860467
342.404	0.377596
341.977	0.146616
341.55	0.455604
341.123	0.541062
340.696	0.451382
340.269	0.20754
339.842	0.315287
339.416	-0.207644
338.989	0.0815222
338.562	0.415344
338.135	0.318687
337.708	0.184393
337.281	0.147498
336.854	0.241716
336.426	0.453182
335.999	-0.183087
335.572	-0.222024
335.145	0.05586
334.718	0.298933
334.291	-0.537907
333.864	0.0338489
333.436	0.2985
333.009	0.239451
332.582	0.112696
332.155	0.0945222
331.727	0.388347
331.3	0.5359
330.873	-0.153033
330.445	-0.150996
330.018	-0.32892
329.591	-0.678251
329.163	-0.577338
328.736	0.116098
328.308	0.300684
327.881	0.210778
327.453	0.152311
327.026	0.347002
326.598	0.501351
326.171	0.0128978
325.743	-0.0616267
325.316	0.305489
324.888	0.44562
324.46	0.0304533
324.033	-0.0226244
323.605	0.0724778
323.178	0.263493
322.75	0.375531
322.322	0.575873
321.894	-0.106524
321.467	-0.124351
321.039	0.311736
320.611	-0.119042
320.183	0.418524
319.755	0.319816
319.327	0.599604
318.9	0.153604
318.472	0.195947
318.044	0.212418
317.616	0.184858
317.188	0.300811
316.76	0.643
316.332	0.0802911
315.904	0.197718
315.476	0.844673
315.048	-0.0976778
314.62	0.426449
314.192	0.372587
313.763	0.513389
313.335	0.471098
312.907	0.593293
312.479	0.502753
312.051	0.24364
311.623	0.343109
311.194	0.824082
310.766	0.271269
310.338	0.651869
309.91	0.441167
309.481	0.652609
309.053	0.514124
308.625	0.463071
308.196	0.415567
307.768	0.676151
307.339	0.442493
306.911	0.697218
306.482	0.601791
306.054	0.461707
305.625	0.583198
305.197	0.330527
304.768	0.676104
304.34	0.695296
303.911	1.17683
303.483	0.77934
303.054	1.30627
302.625	0.593053
302.197	0.610187
301.768	0.837202
301.339	0.766756
300.911	1.07288
300.482	0.718211
300.053	0.604342
299.624	0.651951
299.196	0.473002
298.767	0.539273
298.338	0.755038
297.909	0.582967
297.48	1.0022
297.051	1.05368
296.623	1.00725
296.194	1.1589
295.765	0.531802
295.336	0.904416
294.907	1.25034
294.478	0.777027
294.049	0.841156
293.62	0.801824
293.191	0.878511
292.761	1.00312
292.332	1.2301
291.903	1.02936
291.474	0.784231
291.045	1.01125
290.616	1.03715
290.186	0.602616
289.757	1.05702
289.328	0.745953
288.899	0.70792
288.469	0.676336
288.04	0.414118
287.611	0.349027
287.181	0.776947
286.752	0.75712
286.323	0.315104
285.893	0.269878
285.464	0.579038
285.034	0.164196
284.605	0.128304
284.175	0.61688
283.746	0.0381044
283.316	0.178864
282.887	0.270956
282.457	0.316673
282.028	0.288058
281.598	-0.0443311
281.169	0.0384044
280.739	-0.0588111
280.309	0.271978
279.88	0.286544
279.45	0.0835022
279.02	0.162729
278.59	0.0259711
278.161	0.0531156
277.731	-0.0187933
277.301	0.10838
276.871	0.228482
276.441	-0.39668
276.011	0.07546
275.582	-0.209084
275.152	0.0579822
274.722	-0.237222
274.292	-0.222429
273.862	-0.0181556
273.432	-0.343062
273.002	-0.393784
272.572	-0.695456
272.142	-0.382896
271.712	-0.326593
271.282	-0.61432
270.852	-0.714624
270.421	-0.912404
269.991	-0.997751
269.561	-0.631471
269.131	-1.0019
268.701	-1.15645
268.271	-1.36009
267.84	-1.10384
267.41	-1.93376
266.98	-2.03265
266.549	-2.23106
266.119	-2.25438
265.689	-2.5462
265.258	-2.53566
264.828	-3.04514
264.398	-3.31258
263.967	-3.19888
263.537	-3.15967
263.106	-3.44486
262.676	-3.3935
262.245	-3.59582
261.815	-3.7512
261.384	-4.0247
260.954	-4.2051
260.523	-4.34752
260.092	-4.33948
259.662	-4.5528
259.231	-4.70218
258.801	-4.795
258.37	-4.7648
257.939	-5.11823
257.508	-5.051
257.078	-5.20096
256.647	-5.2134
256.216	-5.33027
255.785	-5.45385
255.355	-5.51351
254.924	-5.43376
254.493	-5.52102
254.062	-5.6689
253.631	-5.81058
253.2	-5.78854
252.769	-5.82795
252.338	-5.68147
251.907	-5.94253
251.476	-5.89018
251.045	-5.84497
250.614	-5.88581
250.183	-5.9725
249.752	-6.03446
249.321	-6.04025
248.89	-6.17731
248.459	-6.07401
248.028	-6.1049
247.596	-6.02961
247.165	-6.09372
246.734	-6.12239
246.303	-6.10732
245.871	-6.04489
245.44	-6.12776
245.009	-6.19079
244.578	-6.1618
244.146	-6.1718
243.715	-6.10598
243.283	-6.19287
242.852	-6.20505
242.421	-6.16951
241.989	-6.1612
241.558	-6.26946
241.126	-6.2685
240.695	-6.24683
240.263	-6.16891
239.832	-6.17348
239.4	-6.22307
238.969	-6.2785
238.537	-6.19338
238.105	-6.22455
237.674	-6.1668
237.242	-6.17875
236.81	-6.26322
236.379	-6.20064
235.947	-6.23979
235.515	-6.22146
235.083	-6.27206
234.652	-6.26123
234.22	-6.21102
233.788	-6.20713
233.356	-6.27827
232.924	-6.28421
232.492	-6.27833
232.061	-6.28423
231.629	-6.18504
231.197	-6.2303
230.765	-6.34468
230.333	-6.17048
229.901	-6.26836
229.469	-6.33361
229.037	-6.27867
228.605	-6.16814
228.172	-6.24896
227.74	-6.21908
227.308	-6.2315
226.876	-6.21562
226.444	-6.28849
226.012	-6.24126
225.58	-6.2094
225.147	-6.25727
224.715	-6.276
224.283	-6.1775
223.851	-6.2277
223.418	-6.27369
222.986	-6.29781
222.554	-6.22407
222.121	-6.27578
221.689	-6.27193
221.256	-6.27614
220.824	-6.30617
220.392	-6.28046
219.959	-6.22718
219.527	-6.21537
219.094	-6.27883
218.662	-6.32255
218.229	-6.27621
217.796	-6.32402
217.364	-6.2188
216.931	-6.25942
216.499	-6.34086
216.066	-6.23112
215.633	-6.31749
215.201	-6.29668
214.768	-6.21877
214.335	-6.29577
213.902	-6.2387
213.47	-6.31253
213.037	-6.27798
212.604	-6.28474
212.171	-6.28733
211.738	-6.33443
211.306	-6.31194
210.873	-6.23792
210.44	-6.27423
210.007	-6.34642
209.574	-6.26743
209.141	-6.3489
208.708	-6.2812
208.275	-6.31152
207.842	-6.24714
207.409	-6.32112
206.976	-6.28873
206.543	-6.30628
206.11	-6.32296