File: tomke/20240809_Si_on_TiO2/20240809/raw_data/laser_0A_1sec_4acc_60mW_671nm.txt
Wavelength(nm), Raman shift(cm^-1), Intensity(counts)
678.12,157.811,59588
678.078,156.887,59816
678.035,155.963,59844
677.993,155.039,59762
677.95,154.115,59773
677.908,153.191,59793
677.865,152.266,59863
677.823,151.342,59831
677.78,150.417,59855
677.738,149.493,59786
677.695,148.568,59838
677.653,147.643,59902
677.61,146.718,59746
677.568,145.793,59790
677.525,144.868,59880
677.483,143.942,59838
677.44,143.017,59787
677.398,142.091,59876
677.355,141.165,59781
677.313,140.24,59768
677.271,139.314,59730
677.228,138.388,59807
677.186,137.461,59798
677.143,136.535,59847
677.101,135.609,59850
677.058,134.682,59806
677.016,133.755,59844
676.973,132.829,59796
676.931,131.902,59756
676.888,130.975,59770
676.846,130.048,59934
676.803,129.12,59756
676.761,128.193,59760
676.718,127.266,59828
676.676,126.338,59718
676.633,125.41,59789
676.591,124.482,59846
676.548,123.554,59825
676.506,122.626,59817
676.463,121.698,59785
676.421,120.77,59802
676.379,119.842,59804
676.336,118.913,59761
676.294,117.984,59899
676.251,117.056,59820
676.209,116.127,59854
676.166,115.198,59796
676.124,114.269,59766
676.081,113.339,59837
676.039,112.41,59762
675.996,111.481,59825
675.954,110.551,59885
675.911,109.621,59869
675.869,108.692,59877
675.826,107.762,59816
675.784,106.832,59849
675.741,105.902,59796
675.699,104.971,59763
675.656,104.041,59780
675.614,103.11,59842
675.571,102.18,59751
675.529,101.249,59716
675.487,100.318,59737
675.444,99.3872,59807
675.402,98.4561,59688
675.359,97.5249,59814
675.317,96.5935,59794
675.274,95.6621,59824
675.232,94.7305,59832
675.189,93.7989,59686
675.147,92.8671,59854
675.104,91.9352,59785
675.062,91.0031,59831
675.019,90.071,59866
674.977,89.1387,59826
674.934,88.2063,59807
674.892,87.2738,59887
674.849,86.3412,59832
674.807,85.4085,59806
674.764,84.4756,59828
674.722,83.5427,59845
674.679,82.6096,59840
674.637,81.6764,59812
674.595,80.7431,59888
674.552,79.8096,59833
674.51,78.8761,59756
674.467,77.9424,59777
674.425,77.0086,59737
674.382,76.0747,59883
674.34,75.1407,59755
674.297,74.2065,59784
674.255,73.2723,59787
674.212,72.3379,59877
674.17,71.4034,59795
674.127,70.4688,59853
674.085,69.534,59913
674.042,68.5992,59895
674,67.6642,59831
673.957,66.7291,59853
673.915,65.7939,59827
673.872,64.8586,59833
673.83,63.9232,59822
673.787,62.9876,59694
673.745,62.0519,59865
673.703,61.1162,59805
673.66,60.1802,59854
673.618,59.2442,59803
673.575,58.3081,59812
673.533,57.3718,59835
673.49,56.4354,59790
673.448,55.4989,59840
673.405,54.5623,59806
673.363,53.6256,59844
673.32,52.6887,59834
673.278,51.7517,59787
673.235,50.8146,59871
673.193,49.8774,59843
673.15,48.9401,59859
673.108,48.0026,59804
673.065,47.0651,59916
673.023,46.1274,59863
672.98,45.1896,59822
672.938,44.2517,59825
672.895,43.3136,59874
672.853,42.3755,59823
672.811,41.4372,59833
672.768,40.4988,59785
672.726,39.5603,59793
672.683,38.6217,59843
672.641,37.6829,59901
672.598,36.744,59884
672.556,35.8051,59917
672.513,34.866,59731
672.471,33.9267,59803
672.428,32.9874,60023
672.386,32.0479,60116
672.343,31.1083,60144
672.301,30.1686,60180
672.258,29.2288,60179
672.216,28.2889,60172
672.173,27.3488,60190
672.131,26.4087,60091
672.088,25.4684,60067
672.046,24.528,60070
672.003,23.5874,60032
671.961,22.6468,60076
671.919,21.706,60055
671.876,20.7651,59967
671.834,19.8241,59926
671.791,18.883,60028
671.749,17.9417,60070
671.706,17.0004,59904
671.664,16.0589,59987
671.621,15.1173,60036
671.579,14.1756,60047
671.536,13.2337,59992
671.494,12.2918,59987
671.451,11.3497,60037
671.409,10.4075,60101
671.366,9.46517,60083
671.324,8.52274,60233
671.281,7.58018,60360
671.239,6.63751,60499
671.196,5.69471,60706
671.154,4.7518,60865
671.111,3.80877,61171
671.069,2.86562,62259
671.027,1.92234,360812
670.984,0.978953,1605084
670.942,0.0354428,2607017
670.899,-0.908187,1993706
670.857,-1.85194,964561
670.814,-2.79581,948246
670.772,-3.73979,296519
670.729,-4.6839,74849
670.687,-5.62813,64462
670.644,-6.57248,62840
670.602,-7.51694,62223
670.559,-8.46153,61722
670.517,-9.40624,61793
670.474,-10.3511,61845
670.432,-11.296,62115
670.389,-12.2411,61962
670.347,-13.1863,61882
670.304,-14.1316,61716
670.262,-15.077,61192
670.22,-16.0225,61292
670.177,-16.9682,61540
670.135,-17.914,61392
670.092,-18.8599,62969
670.05,-19.8059,63022
670.007,-20.7521,61465
669.965,-21.6983,61278
669.922,-22.6447,60623
669.88,-23.5912,60432
669.837,-24.5378,60345
669.795,-25.4846,60247
669.752,-26.4314,60191
669.71,-27.3784,60218
669.667,-28.3255,60215
669.625,-29.2727,60146
669.582,-30.2201,60066
669.54,-31.1676,60136
669.497,-32.1151,60105
669.455,-33.0628,60116
669.412,-34.0107,60086
669.37,-34.9586,60134
669.328,-35.9067,60060
669.285,-36.8549,60125
669.243,-37.8032,60087
669.2,-38.7516,60170
669.158,-39.7002,60039
669.115,-40.6488,60040
669.073,-41.5976,60101
669.03,-42.5465,60133
668.988,-43.4956,60169
668.945,-44.4447,60105
668.903,-45.394,60100
668.86,-46.3434,60015
668.818,-47.2929,60047
668.775,-48.2425,60019
668.733,-49.1923,60069
668.69,-50.1421,60083
668.648,-51.0921,60059
668.605,-52.0422,60013
668.563,-52.9925,60015
668.52,-53.9428,60058
668.478,-54.8933,60025
668.436,-55.8439,60118
668.393,-56.7946,60088
668.351,-57.7455,60051
668.308,-58.6964,60049
668.266,-59.6475,60042
668.223,-60.5987,60138
668.181,-61.55,60027
668.138,-62.5015,59988
668.096,-63.4531,59951
668.053,-64.4047,60032
668.011,-65.3565,59981
667.968,-66.3085,59968
667.926,-67.2605,60061
667.883,-68.2127,60041
667.841,-69.165,59912
667.798,-70.1174,59989
667.756,-71.0699,60040
667.713,-72.0226,60030
667.671,-72.9754,60070
667.628,-73.9283,59970
667.586,-74.8813,60048
667.544,-75.8344,60000
667.501,-76.7877,59967
667.459,-77.7411,59960
667.416,-78.6946,60033
667.374,-79.6482,59987
667.331,-80.6019,60096
667.289,-81.5558,60013
667.246,-82.5098,60087
667.204,-83.4639,59999
667.161,-84.4181,60013
667.119,-85.3725,59988
667.076,-86.327,59994
667.034,-87.2816,60061
666.991,-88.2363,60051
666.949,-89.1911,59983
666.906,-90.1461,60022
666.864,-91.1012,60092
666.821,-92.0564,60113
666.779,-93.0117,59975
666.736,-93.9672,60064
666.694,-94.9227,59951
666.652,-95.8784,60002
666.609,-96.8342,59945
666.567,-97.7902,60036
666.524,-98.7462,60018
666.482,-99.7024,60039
666.439,-100.659,60006
666.397,-101.615,59983
666.354,-102.572,60021
666.312,-103.528,60010
666.269,-104.485,60013
666.227,-105.442,59976
666.184,-106.399,60070
666.142,-107.356,59940
666.099,-108.314,60017
666.057,-109.271,60060
666.014,-110.228,60028
665.972,-111.186,60063
665.929,-112.144,60036
665.887,-113.102,60000
665.844,-114.06,60054
665.802,-115.018,60093
665.76,-115.976,59956
665.717,-116.935,60086
665.675,-117.893,60110
665.632,-118.852,59996
665.59,-119.81,59991
665.547,-120.769,59998
665.505,-121.728,60035
665.462,-122.687,59993
665.42,-123.647,60019
665.377,-124.606,59998
665.335,-125.565,59941
665.292,-126.525,59975
665.25,-127.485,60025
665.207,-128.445,60040
665.165,-129.405,60105
665.122,-130.365,60059
665.08,-131.325,59988
665.037,-132.285,60015
664.995,-133.246,60018
664.952,-134.206,60025
664.91,-135.167,60067
664.868,-136.128,60033
664.825,-137.089,60090
664.783,-138.05,59970
664.74,-139.011,60127
664.698,-139.972,59937
664.655,-140.934,60050
664.613,-141.895,60156
664.57,-142.857,60025
664.528,-143.819,60034
664.485,-144.781,60002
664.443,-145.743,59941
664.4,-146.705,60035
664.358,-147.667,60012
664.315,-148.63,60070
664.273,-149.592,60019
664.23,-150.555,60081
664.188,-151.518,60077
664.145,-152.481,60000
664.103,-153.444,60051
664.06,-154.407,60073
664.018,-155.37,60066
663.976,-156.334,59906
663.933,-157.297,59928
678.12,157.811,59580
678.078,156.887,59916
678.035,155.963,59819
677.993,155.039,59762
677.95,154.115,59762
677.908,153.191,59836
677.865,152.266,59827
677.823,151.342,59736
677.78,150.417,59778
677.738,149.493,59866
677.695,148.568,59769
677.653,147.643,59772
677.61,146.718,59838
677.568,145.793,59854
677.525,144.868,59844
677.483,143.942,59870
677.44,143.017,59819
677.398,142.091,59871
677.355,141.165,59818
677.313,140.24,59859
677.271,139.314,59805
677.228,138.388,59793
677.186,137.461,59796
677.143,136.535,59879
677.101,135.609,59810
677.058,134.682,59841
677.016,133.755,59866
676.973,132.829,59797
676.931,131.902,59859
676.888,130.975,59867
676.846,130.048,59845
676.803,129.12,59815
676.761,128.193,59772
676.718,127.266,59775
676.676,126.338,59865
676.633,125.41,59755
676.591,124.482,59829
676.548,123.554,59825
676.506,122.626,59901
676.463,121.698,59847
676.421,120.77,59887
676.379,119.842,59809
676.336,118.913,59748
676.294,117.984,59881
676.251,117.056,59856
676.209,116.127,59869
676.166,115.198,59817
676.124,114.269,59775
676.081,113.339,59858
676.039,112.41,59827
675.996,111.481,59779
675.954,110.551,59826
675.911,109.621,59798
675.869,108.692,59868
675.826,107.762,59715
675.784,106.832,59845
675.741,105.902,59852
675.699,104.971,59911
675.656,104.041,59774
675.614,103.11,59834
675.571,102.18,59875
675.529,101.249,59817
675.487,100.318,59846
675.444,99.3872,59759
675.402,98.4561,59785
675.359,97.5249,59852
675.317,96.5935,59779
675.274,95.6621,59801
675.232,94.7305,59795
675.189,93.7989,59847
675.147,92.8671,59862
675.104,91.9352,59826
675.062,91.0031,59760
675.019,90.071,59807
674.977,89.1387,59852
674.934,88.2063,59808
674.892,87.2738,59861
674.849,86.3412,59834
674.807,85.4085,59833
674.764,84.4756,59924
674.722,83.5427,59752
674.679,82.6096,59838
674.637,81.6764,59817
674.595,80.7431,59723
674.552,79.8096,59749
674.51,78.8761,59814
674.467,77.9424,59776
674.425,77.0086,59785
674.382,76.0747,59874
674.34,75.1407,59835
674.297,74.2065,59848
674.255,73.2723,59785
674.212,72.3379,59716
674.17,71.4034,59843
674.127,70.4688,59789
674.085,69.534,59813
674.042,68.5992,59835
674,67.6642,59787
673.957,66.7291,59816
673.915,65.7939,59861
673.872,64.8586,59779
673.83,63.9232,59832
673.787,62.9876,59789
673.745,62.0519,59862
673.703,61.1162,59880
673.66,60.1802,59816
673.618,59.2442,59819
673.575,58.3081,59831
673.533,57.3718,59858
673.49,56.4354,59813
673.448,55.4989,59843
673.405,54.5623,59811
673.363,53.6256,59862
673.32,52.6887,59827
673.278,51.7517,59880
673.235,50.8146,59785
673.193,49.8774,59880
673.15,48.9401,59825
673.108,48.0026,59798
673.065,47.0651,59728
673.023,46.1274,59753
672.98,45.1896,59920
672.938,44.2517,59866
672.895,43.3136,59829
672.853,42.3755,59797
672.811,41.4372,59849
672.768,40.4988,59801
672.726,39.5603,59930
672.683,38.6217,59886
672.641,37.6829,59776
672.598,36.744,59796
672.556,35.8051,59891
672.513,34.866,59886
672.471,33.9267,59814
672.428,32.9874,60007
672.386,32.0479,60097
672.343,31.1083,60131
672.301,30.1686,60124
672.258,29.2288,60071
672.216,28.2889,60226
672.173,27.3488,60050
672.131,26.4087,60104
672.088,25.4684,60131
672.046,24.528,60123
672.003,23.5874,60090
671.961,22.6468,60011
671.919,21.706,60026
671.876,20.7651,60066
671.834,19.8241,59970
671.791,18.883,60006
671.749,17.9417,59993
671.706,17.0004,59919
671.664,16.0589,59944
671.621,15.1173,59981
671.579,14.1756,60100
671.536,13.2337,59992
671.494,12.2918,59963
671.451,11.3497,60061
671.409,10.4075,60084
671.366,9.46517,60210
671.324,8.52274,60261
671.281,7.58018,60349
671.239,6.63751,60504
671.196,5.69471,60636
671.154,4.7518,60767
671.111,3.80877,61090
671.069,2.86562,62456
671.027,1.92234,363945
670.984,0.978953,1594272
670.942,0.0354428,2622977
670.899,-0.908187,2041437
670.857,-1.85194,966588
670.814,-2.79581,954627
670.772,-3.73979,297452
670.729,-4.6839,75281
670.687,-5.62813,64376
670.644,-6.57248,62994
670.602,-7.51694,62255
670.559,-8.46153,61802
670.517,-9.40624,61781
670.474,-10.3511,61847
670.432,-11.296,62176
670.389,-12.2411,61999
670.347,-13.1863,61919
670.304,-14.1316,61765
670.262,-15.077,61105
670.22,-16.0225,61278
670.177,-16.9682,61364
670.135,-17.914,61395
670.092,-18.8599,63206
670.05,-19.8059,63012
670.007,-20.7521,61637
669.965,-21.6983,61291
669.922,-22.6447,60566
669.88,-23.5912,60453
669.837,-24.5378,60221
669.795,-25.4846,60315
669.752,-26.4314,60171
669.71,-27.3784,60200
669.667,-28.3255,60277
669.625,-29.2727,60099
669.582,-30.2201,60037
669.54,-31.1676,60227
669.497,-32.1151,60199
669.455,-33.0628,60088
669.412,-34.0107,60102
669.37,-34.9586,60078
669.328,-35.9067,60177
669.285,-36.8549,60109
669.243,-37.8032,60072
669.2,-38.7516,60139
669.158,-39.7002,59995
669.115,-40.6488,60061
669.073,-41.5976,60056
669.03,-42.5465,60093
668.988,-43.4956,60079
668.945,-44.4447,60035
668.903,-45.394,60074
668.86,-46.3434,60103
668.818,-47.2929,60118
668.775,-48.2425,59910
668.733,-49.1923,60053
668.69,-50.1421,60025
668.648,-51.0921,60093
668.605,-52.0422,60085
668.563,-52.9925,60028
668.52,-53.9428,59986
668.478,-54.8933,59970
668.436,-55.8439,59982
668.393,-56.7946,60026
668.351,-57.7455,60059
668.308,-58.6964,60077
668.266,-59.6475,60111
668.223,-60.5987,60068
668.181,-61.55,60035
668.138,-62.5015,60017
668.096,-63.4531,59993
668.053,-64.4047,60029
668.011,-65.3565,60094
667.968,-66.3085,60026
667.926,-67.2605,60010
667.883,-68.2127,59992
667.841,-69.165,60039
667.798,-70.1174,60111
667.756,-71.0699,60013
667.713,-72.0226,60087
667.671,-72.9754,60066
667.628,-73.9283,60007
667.586,-74.8813,60040
667.544,-75.8344,60008
667.501,-76.7877,60083
667.459,-77.7411,60073
667.416,-78.6946,60130
667.374,-79.6482,60007
667.331,-80.6019,60072
667.289,-81.5558,60010
667.246,-82.5098,60018
667.204,-83.4639,60028
667.161,-84.4181,60053
667.119,-85.3725,60060
667.076,-86.327,60099
667.034,-87.2816,60025
666.991,-88.2363,59933
666.949,-89.1911,60055
666.906,-90.1461,59998
666.864,-91.1012,60085
666.821,-92.0564,60079
666.779,-93.0117,60011
666.736,-93.9672,60029
666.694,-94.9227,60086
666.652,-95.8784,60079
666.609,-96.8342,59981
666.567,-97.7902,59922
666.524,-98.7462,59992
666.482,-99.7024,59989
666.439,-100.659,59952
666.397,-101.615,60037
666.354,-102.572,60085
666.312,-103.528,60053
666.269,-104.485,59963
666.227,-105.442,60060
666.184,-106.399,59898
666.142,-107.356,59932
666.099,-108.314,60017
666.057,-109.271,59981
666.014,-110.228,59993
665.972,-111.186,60007
665.929,-112.144,60047
665.887,-113.102,59973
665.844,-114.06,60103
665.802,-115.018,60054
665.76,-115.976,59970
665.717,-116.935,60035
665.675,-117.893,60031
665.632,-118.852,59942
665.59,-119.81,60032
665.547,-120.769,60110
665.505,-121.728,60027
665.462,-122.687,60068
665.42,-123.647,59996
665.377,-124.606,59994
665.335,-125.565,60004
665.292,-126.525,59989
665.25,-127.485,59952
665.207,-128.445,60007
665.165,-129.405,60061
665.122,-130.365,60015
665.08,-131.325,60074
665.037,-132.285,60124
664.995,-133.246,59986
664.952,-134.206,59925
664.91,-135.167,60024
664.868,-136.128,60111
664.825,-137.089,59986
664.783,-138.05,60039
664.74,-139.011,59983
664.698,-139.972,59989
664.655,-140.934,60083
664.613,-141.895,60019
664.57,-142.857,60080
664.528,-143.819,60015
664.485,-144.781,59993
664.443,-145.743,60031
664.4,-146.705,59964
664.358,-147.667,60034
664.315,-148.63,59992
664.273,-149.592,60013
664.23,-150.555,59979
664.188,-151.518,60009
664.145,-152.481,60096
664.103,-153.444,60007
664.06,-154.407,59995
664.018,-155.37,60035
663.976,-156.334,59920
663.933,-157.297,59959
678.12,157.811,59515
678.078,156.887,59829
678.035,155.963,59791
677.993,155.039,59866
677.95,154.115,59847
677.908,153.191,59788
677.865,152.266,59865
677.823,151.342,59727
677.78,150.417,59773
677.738,149.493,59869
677.695,148.568,59784
677.653,147.643,59775
677.61,146.718,59842
677.568,145.793,59743
677.525,144.868,59869
677.483,143.942,59822
677.44,143.017,59862
677.398,142.091,59824
677.355,141.165,59801
677.313,140.24,59766
677.271,139.314,59820
677.228,138.388,59817
677.186,137.461,59817
677.143,136.535,59845
677.101,135.609,59809
677.058,134.682,59760
677.016,133.755,59825
676.973,132.829,59831
676.931,131.902,59792
676.888,130.975,59785
676.846,130.048,59805
676.803,129.12,59803
676.761,128.193,59759
676.718,127.266,59850
676.676,126.338,59742
676.633,125.41,59810
676.591,124.482,59894
676.548,123.554,59808
676.506,122.626,59812
676.463,121.698,59799
676.421,120.77,59808
676.379,119.842,59752
676.336,118.913,59809
676.294,117.984,59767
676.251,117.056,59784
676.209,116.127,59755
676.166,115.198,59778
676.124,114.269,59739
676.081,113.339,59766
676.039,112.41,59747
675.996,111.481,59780
675.954,110.551,59818
675.911,109.621,59835
675.869,108.692,59825
675.826,107.762,59799
675.784,106.832,59871
675.741,105.902,59829
675.699,104.971,59860
675.656,104.041,59791
675.614,103.11,59803
675.571,102.18,59820
675.529,101.249,59822
675.487,100.318,59830
675.444,99.3872,59777
675.402,98.4561,59873
675.359,97.5249,59743
675.317,96.5935,59729
675.274,95.6621,59791
675.232,94.7305,59742
675.189,93.7989,59859
675.147,92.8671,59889
675.104,91.9352,59865
675.062,91.0031,59863
675.019,90.071,59781
674.977,89.1387,59856
674.934,88.2063,59843
674.892,87.2738,59766
674.849,86.3412,59790
674.807,85.4085,59831
674.764,84.4756,59849
674.722,83.5427,59837
674.679,82.6096,59772
674.637,81.6764,59825
674.595,80.7431,59785
674.552,79.8096,59804
674.51,78.8761,59823
674.467,77.9424,59800
674.425,77.0086,59861
674.382,76.0747,59823
674.34,75.1407,59862
674.297,74.2065,59876
674.255,73.2723,59805
674.212,72.3379,59818
674.17,71.4034,59808
674.127,70.4688,59814
674.085,69.534,59802
674.042,68.5992,59842
674,67.6642,59778
673.957,66.7291,59799
673.915,65.7939,59762
673.872,64.8586,59747
673.83,63.9232,59779
673.787,62.9876,59796
673.745,62.0519,59820
673.703,61.1162,59853
673.66,60.1802,59897
673.618,59.2442,59822
673.575,58.3081,59862
673.533,57.3718,59858
673.49,56.4354,59845
673.448,55.4989,59799
673.405,54.5623,59764
673.363,53.6256,59777
673.32,52.6887,59821
673.278,51.7517,59745
673.235,50.8146,59820
673.193,49.8774,59807
673.15,48.9401,59913
673.108,48.0026,59740
673.065,47.0651,59796
673.023,46.1274,59798
672.98,45.1896,59866
672.938,44.2517,59811
672.895,43.3136,59829
672.853,42.3755,59839
672.811,41.4372,59772
672.768,40.4988,59782
672.726,39.5603,59781
672.683,38.6217,59859
672.641,37.6829,59871
672.598,36.744,59866
672.556,35.8051,59876
672.513,34.866,59795
672.471,33.9267,59815
672.428,32.9874,60018
672.386,32.0479,60170
672.343,31.1083,60046
672.301,30.1686,60118
672.258,29.2288,60130
672.216,28.2889,60139
672.173,27.3488,60161
672.131,26.4087,60103
672.088,25.4684,60092
672.046,24.528,60103
672.003,23.5874,60046
671.961,22.6468,60040
671.919,21.706,60035
671.876,20.7651,59983
671.834,19.8241,59974
671.791,18.883,59989
671.749,17.9417,60035
671.706,17.0004,59999
671.664,16.0589,59983
671.621,15.1173,60025
671.579,14.1756,59972
671.536,13.2337,60049
671.494,12.2918,59978
671.451,11.3497,60034
671.409,10.4075,60049
671.366,9.46517,60138
671.324,8.52274,60262
671.281,7.58018,60352
671.239,6.63751,60459
671.196,5.69471,60589
671.154,4.7518,60809
671.111,3.80877,60938
671.069,2.86562,62264
671.027,1.92234,355127
670.984,0.978953,1625451
670.942,0.0354428,2644833
670.899,-0.908187,2026020
670.857,-1.85194,985497
670.814,-2.79581,952863
670.772,-3.73979,299139
670.729,-4.6839,75015
670.687,-5.62813,64261
670.644,-6.57248,63012
670.602,-7.51694,62144
670.559,-8.46153,61774
670.517,-9.40624,61645
670.474,-10.3511,61784
670.432,-11.296,62273
670.389,-12.2411,61922
670.347,-13.1863,61859
670.304,-14.1316,61748
670.262,-15.077,61217
670.22,-16.0225,61375
670.177,-16.9682,61571
670.135,-17.914,61489
670.092,-18.8599,62975
670.05,-19.8059,63162
670.007,-20.7521,61636
669.965,-21.6983,61491
669.922,-22.6447,60742
669.88,-23.5912,60532
669.837,-24.5378,60336
669.795,-25.4846,60271
669.752,-26.4314,60236
669.71,-27.3784,60240
669.667,-28.3255,60213
669.625,-29.2727,60163
669.582,-30.2201,60153
669.54,-31.1676,60147
669.497,-32.1151,60168
669.455,-33.0628,60196
669.412,-34.0107,60076
669.37,-34.9586,60108
669.328,-35.9067,60132
669.285,-36.8549,60144
669.243,-37.8032,60118
669.2,-38.7516,60116
669.158,-39.7002,60104
669.115,-40.6488,60058
669.073,-41.5976,60106
669.03,-42.5465,60040
668.988,-43.4956,59919
668.945,-44.4447,60147
668.903,-45.394,60068
668.86,-46.3434,60080
668.818,-47.2929,60026
668.775,-48.2425,60003
668.733,-49.1923,60110
668.69,-50.1421,60114
668.648,-51.0921,60137
668.605,-52.0422,60101
668.563,-52.9925,60070
668.52,-53.9428,60108
668.478,-54.8933,59996
668.436,-55.8439,60003
668.393,-56.7946,59993
668.351,-57.7455,59987
668.308,-58.6964,60018
668.266,-59.6475,60055
668.223,-60.5987,60070
668.181,-61.55,60019
668.138,-62.5015,59999
668.096,-63.4531,60001
668.053,-64.4047,60034
668.011,-65.3565,60055
667.968,-66.3085,60055
667.926,-67.2605,60025
667.883,-68.2127,60078
667.841,-69.165,60023
667.798,-70.1174,60092
667.756,-71.0699,60037
667.713,-72.0226,60044
667.671,-72.9754,60087
667.628,-73.9283,60104
667.586,-74.8813,59978
667.544,-75.8344,60093
667.501,-76.7877,60070
667.459,-77.7411,60068
667.416,-78.6946,60043
667.374,-79.6482,60058
667.331,-80.6019,60013
667.289,-81.5558,60050
667.246,-82.5098,59995
667.204,-83.4639,60068
667.161,-84.4181,59901
667.119,-85.3725,59997
667.076,-86.327,60054
667.034,-87.2816,60015
666.991,-88.2363,59967
666.949,-89.1911,60013
666.906,-90.1461,60022
666.864,-91.1012,60094
666.821,-92.0564,60071
666.779,-93.0117,59995
666.736,-93.9672,60000
666.694,-94.9227,60029
666.652,-95.8784,60114
666.609,-96.8342,60013
666.567,-97.7902,60025
666.524,-98.7462,60069
666.482,-99.7024,59963
666.439,-100.659,59971
666.397,-101.615,60162
666.354,-102.572,60071
666.312,-103.528,60051
666.269,-104.485,60035
666.227,-105.442,60003
666.184,-106.399,60027
666.142,-107.356,60026
666.099,-108.314,60060
666.057,-109.271,60007
666.014,-110.228,60031
665.972,-111.186,60049
665.929,-112.144,59965
665.887,-113.102,60049
665.844,-114.06,60020
665.802,-115.018,60007
665.76,-115.976,60053
665.717,-116.935,60094
665.675,-117.893,60087
665.632,-118.852,60073
665.59,-119.81,60023
665.547,-120.769,60061
665.505,-121.728,60075
665.462,-122.687,60085
665.42,-123.647,60085
665.377,-124.606,60030
665.335,-125.565,60019
665.292,-126.525,60026
665.25,-127.485,59953
665.207,-128.445,60067
665.165,-129.405,60006
665.122,-130.365,60021
665.08,-131.325,60025
665.037,-132.285,59951
664.995,-133.246,60039
664.952,-134.206,59985
664.91,-135.167,59971
664.868,-136.128,60085
664.825,-137.089,60044
664.783,-138.05,59962
664.74,-139.011,59990
664.698,-139.972,60127
664.655,-140.934,60091
664.613,-141.895,60028
664.57,-142.857,60018
664.528,-143.819,60069
664.485,-144.781,60001
664.443,-145.743,60006
664.4,-146.705,60054
664.358,-147.667,59970
664.315,-148.63,59940
664.273,-149.592,59958
664.23,-150.555,60007
664.188,-151.518,60006
664.145,-152.481,60028
664.103,-153.444,60029
664.06,-154.407,60095
664.018,-155.37,60018
663.976,-156.334,59956
663.933,-157.297,59974
678.12,157.811,59540
678.078,156.887,59874
678.035,155.963,59819
677.993,155.039,59801
677.95,154.115,59788
677.908,153.191,59736
677.865,152.266,59809
677.823,151.342,59769
677.78,150.417,59797
677.738,149.493,59866
677.695,148.568,59850
677.653,147.643,59803
677.61,146.718,59755
677.568,145.793,59770
677.525,144.868,59763
677.483,143.942,59852
677.44,143.017,59796
677.398,142.091,59796
677.355,141.165,59836
677.313,140.24,59874
677.271,139.314,59811
677.228,138.388,59800
677.186,137.461,59842
677.143,136.535,59852
677.101,135.609,59811
677.058,134.682,59831
677.016,133.755,59956
676.973,132.829,59805
676.931,131.902,59814
676.888,130.975,59810
676.846,130.048,59802
676.803,129.12,59846
676.761,128.193,59799
676.718,127.266,59707
676.676,126.338,59762
676.633,125.41,59812
676.591,124.482,59819
676.548,123.554,59769
676.506,122.626,59844
676.463,121.698,59748
676.421,120.77,59804
676.379,119.842,59798
676.336,118.913,59869
676.294,117.984,59849
676.251,117.056,59815
676.209,116.127,59800
676.166,115.198,59814
676.124,114.269,59727
676.081,113.339,59824
676.039,112.41,59851
675.996,111.481,59760
675.954,110.551,59848
675.911,109.621,59849
675.869,108.692,59801
675.826,107.762,59851
675.784,106.832,59786
675.741,105.902,59840
675.699,104.971,59782
675.656,104.041,59818
675.614,103.11,59777
675.571,102.18,59807
675.529,101.249,59877
675.487,100.318,59873
675.444,99.3872,59875
675.402,98.4561,59851
675.359,97.5249,59852
675.317,96.5935,59839
675.274,95.6621,59822
675.232,94.7305,59841
675.189,93.7989,59831
675.147,92.8671,59794
675.104,91.9352,59822
675.062,91.0031,59820
675.019,90.071,59929
674.977,89.1387,59829
674.934,88.2063,59838
674.892,87.2738,59861
674.849,86.3412,59797
674.807,85.4085,59823
674.764,84.4756,59930
674.722,83.5427,59830
674.679,82.6096,59831
674.637,81.6764,59849
674.595,80.7431,59736
674.552,79.8096,59868
674.51,78.8761,59790
674.467,77.9424,59826
674.425,77.0086,59861
674.382,76.0747,59899
674.34,75.1407,59805
674.297,74.2065,59945
674.255,73.2723,59797
674.212,72.3379,59807
674.17,71.4034,59895
674.127,70.4688,59824
674.085,69.534,59848
674.042,68.5992,59869
674,67.6642,59753
673.957,66.7291,59788
673.915,65.7939,59832
673.872,64.8586,59832
673.83,63.9232,59813
673.787,62.9876,59827
673.745,62.0519,59861
673.703,61.1162,59824
673.66,60.1802,59863
673.618,59.2442,59818
673.575,58.3081,59827
673.533,57.3718,59809
673.49,56.4354,59851
673.448,55.4989,59923
673.405,54.5623,59810
673.363,53.6256,59752
673.32,52.6887,59833
673.278,51.7517,59897
673.235,50.8146,59823
673.193,49.8774,59864
673.15,48.9401,59799
673.108,48.0026,59871
673.065,47.0651,59864
673.023,46.1274,59805
672.98,45.1896,59806
672.938,44.2517,59875
672.895,43.3136,59790
672.853,42.3755,59802
672.811,41.4372,59771
672.768,40.4988,59773
672.726,39.5603,59887
672.683,38.6217,59853
672.641,37.6829,59809
672.598,36.744,59855
672.556,35.8051,59863
672.513,34.866,59903
672.471,33.9267,59844
672.428,32.9874,60073
672.386,32.0479,60086
672.343,31.1083,60167
672.301,30.1686,60205
672.258,29.2288,60092
672.216,28.2889,60196
672.173,27.3488,60262
672.131,26.4087,60010
672.088,25.4684,60070
672.046,24.528,60140
672.003,23.5874,60042
671.961,22.6468,59949
671.919,21.706,60051
671.876,20.7651,60009
671.834,19.8241,59940
671.791,18.883,59974
671.749,17.9417,59964
671.706,17.0004,60001
671.664,16.0589,60024
671.621,15.1173,60019
671.579,14.1756,60023
671.536,13.2337,60031
671.494,12.2918,59997
671.451,11.3497,60029
671.409,10.4075,60052
671.366,9.46517,60234
671.324,8.52274,60260
671.281,7.58018,60340
671.239,6.63751,60566
671.196,5.69471,60728
671.154,4.7518,60837
671.111,3.80877,61095
671.069,2.86562,62300
671.027,1.92234,364475
670.984,0.978953,1646335
670.942,0.0354428,2628700
670.899,-0.908187,2044559
670.857,-1.85194,978102
670.814,-2.79581,954694
670.772,-3.73979,298241
670.729,-4.6839,75228
670.687,-5.62813,64238
670.644,-6.57248,62969
670.602,-7.51694,62275
670.559,-8.46153,61804
670.517,-9.40624,61594
670.474,-10.3511,61751
670.432,-11.296,62300
670.389,-12.2411,61948
670.347,-13.1863,61865
670.304,-14.1316,61766
670.262,-15.077,61146
670.22,-16.0225,61245
670.177,-16.9682,61387
670.135,-17.914,61580
670.092,-18.8599,63139
670.05,-19.8059,63168
670.007,-20.7521,61544
669.965,-21.6983,61280
669.922,-22.6447,60573
669.88,-23.5912,60419
669.837,-24.5378,60385
669.795,-25.4846,60199
669.752,-26.4314,60277
669.71,-27.3784,60228
669.667,-28.3255,60184
669.625,-29.2727,60176
669.582,-30.2201,60105
669.54,-31.1676,60126
669.497,-32.1151,60073
669.455,-33.0628,60109
669.412,-34.0107,60141
669.37,-34.9586,60134
669.328,-35.9067,60117
669.285,-36.8549,60149
669.243,-37.8032,60122
669.2,-38.7516,59999
669.158,-39.7002,60040
669.115,-40.6488,60040
669.073,-41.5976,60053
669.03,-42.5465,60001
668.988,-43.4956,60093
668.945,-44.4447,60087
668.903,-45.394,60113
668.86,-46.3434,60084
668.818,-47.2929,59967
668.775,-48.2425,60031
668.733,-49.1923,60033
668.69,-50.1421,59938
668.648,-51.0921,60091
668.605,-52.0422,60102
668.563,-52.9925,59986
668.52,-53.9428,60034
668.478,-54.8933,60065
668.436,-55.8439,60070
668.393,-56.7946,59994
668.351,-57.7455,59958
668.308,-58.6964,60126
668.266,-59.6475,60065
668.223,-60.5987,60098
668.181,-61.55,59982
668.138,-62.5015,60087
668.096,-63.4531,59935
668.053,-64.4047,60008
668.011,-65.3565,60022
667.968,-66.3085,60113
667.926,-67.2605,60064
667.883,-68.2127,59968
667.841,-69.165,60059
667.798,-70.1174,60063
667.756,-71.0699,60068
667.713,-72.0226,59979
667.671,-72.9754,59997
667.628,-73.9283,60011
667.586,-74.8813,60102
667.544,-75.8344,60086
667.501,-76.7877,60010
667.459,-77.7411,60089
667.416,-78.6946,60051
667.374,-79.6482,60016
667.331,-80.6019,60022
667.289,-81.5558,59945
667.246,-82.5098,59976
667.204,-83.4639,60062
667.161,-84.4181,60013
667.119,-85.3725,60073
667.076,-86.327,60044
667.034,-87.2816,60024
666.991,-88.2363,60023
666.949,-89.1911,59988
666.906,-90.1461,60076
666.864,-91.1012,60009
666.821,-92.0564,60060
666.779,-93.0117,60029
666.736,-93.9672,60098
666.694,-94.9227,60037
666.652,-95.8784,60071
666.609,-96.8342,60035
666.567,-97.7902,59995
666.524,-98.7462,60085
666.482,-99.7024,59999
666.439,-100.659,60073
666.397,-101.615,60025
666.354,-102.572,60032
666.312,-103.528,60006
666.269,-104.485,60034
666.227,-105.442,59987
666.184,-106.399,60040
666.142,-107.356,60048
666.099,-108.314,60120
666.057,-109.271,60110
666.014,-110.228,59946
665.972,-111.186,60091
665.929,-112.144,60110
665.887,-113.102,59972
665.844,-114.06,60051
665.802,-115.018,60032
665.76,-115.976,60063
665.717,-116.935,59957
665.675,-117.893,60089
665.632,-118.852,60011
665.59,-119.81,59998
665.547,-120.769,60031
665.505,-121.728,60120
665.462,-122.687,60081
665.42,-123.647,60072
665.377,-124.606,59918
665.335,-125.565,60002
665.292,-126.525,59993
665.25,-127.485,60029
665.207,-128.445,60066
665.165,-129.405,60148
665.122,-130.365,59996
665.08,-131.325,60024
665.037,-132.285,60103
664.995,-133.246,60061
664.952,-134.206,60014
664.91,-135.167,59973
664.868,-136.128,59959
664.825,-137.089,60046
664.783,-138.05,59994
664.74,-139.011,59990
664.698,-139.972,60029
664.655,-140.934,60000
664.613,-141.895,59918
664.57,-142.857,59976
664.528,-143.819,59922
664.485,-144.781,59978
664.443,-145.743,59965
664.4,-146.705,60111
664.358,-147.667,59975
664.315,-148.63,59941
664.273,-149.592,60093
664.23,-150.555,60001
664.188,-151.518,60071
664.145,-152.481,60024
664.103,-153.444,60027
664.06,-154.407,60018
664.018,-155.37,60096
663.976,-156.334,59920
663.933,-157.297,59981
663.901,-158.02,59988