File: tomke/20240809_Si_on_TiO2/20240809/raw_data/Laser_532nm.txt
Wavelength(nm), Raman shift(cm^-1), Intensity(counts)
539.154,292.26,59408
539.141,291.831,59509
539.129,291.402,59659
539.116,290.973,59765
539.104,290.543,59779
539.091,290.114,59790
539.079,289.685,59846
539.067,289.256,59750
539.054,288.826,59737
539.042,288.397,59733
539.029,287.968,59745
539.017,287.539,59738
539.004,287.109,59704
538.992,286.68,59812
538.979,286.25,59778
538.967,285.821,59804
538.954,285.392,59690
538.942,284.962,59721
538.929,284.533,59740
538.917,284.103,59779
538.904,283.674,59724
538.892,283.244,59760
538.879,282.815,59811
538.867,282.385,59725
538.854,281.955,59747
538.842,281.526,59740
538.83,281.096,59859
538.817,280.667,59665
538.805,280.237,59749
538.792,279.807,59696
538.78,279.378,59786
538.767,278.948,59725
538.755,278.518,59744
538.742,278.088,59738
538.73,277.658,59815
538.717,277.229,59698
538.705,276.799,59762
538.692,276.369,59715
538.68,275.939,59713
538.667,275.509,59728
538.655,275.079,59732
538.642,274.649,59683
538.63,274.219,59737
538.617,273.789,59695
538.605,273.359,59733
538.592,272.929,59717
538.58,272.499,59718
538.568,272.069,59734
538.555,271.639,59802
538.543,271.209,59750
538.53,270.779,59771
538.518,270.349,59695
538.505,269.919,59691
538.493,269.489,59722
538.48,269.059,59741
538.468,268.628,59730
538.455,268.198,59749
538.443,267.768,59703
538.43,267.338,59739
538.418,266.907,59732
538.405,266.477,59766
538.393,266.047,59816
538.38,265.616,59738
538.368,265.186,59670
538.355,264.756,59745
538.343,264.325,59746
538.331,263.895,59663
538.318,263.464,59723
538.306,263.034,59778
538.293,262.603,59678
538.281,262.173,59721
538.268,261.742,59786
538.256,261.312,59660
538.243,260.881,59788
538.231,260.451,59729
538.218,260.02,59801
538.206,259.589,59719
538.193,259.159,59739
538.181,258.728,59803
538.168,258.297,59740
538.156,257.867,59794
538.143,257.436,59712
538.131,257.005,59652
538.118,256.574,59814
538.106,256.144,59738
538.094,255.713,59702
538.081,255.282,59697
538.069,254.851,59668
538.056,254.42,59701
538.044,253.989,59636
538.031,253.559,59738
538.019,253.128,59733
538.006,252.697,59745
537.994,252.266,59713
537.981,251.835,59731
537.969,251.404,59753
537.956,250.973,59699
537.944,250.542,59716
537.931,250.111,59716
537.919,249.679,59740
537.906,249.248,59712
537.894,248.817,59748
537.881,248.386,59750
537.869,247.955,59760
537.857,247.524,59688
537.844,247.093,59671
537.832,246.661,59724
537.819,246.23,59781
537.807,245.799,59784
537.794,245.368,59755
537.782,244.936,59780
537.769,244.505,59812
537.757,244.074,59710
537.744,243.642,59807
537.732,243.211,59785
537.719,242.779,59688
537.707,242.348,59772
537.694,241.917,59727
537.682,241.485,59680
537.669,241.054,59758
537.657,240.622,59740
537.644,240.191,59743
537.632,239.759,59756
537.62,239.327,59765
537.607,238.896,59741
537.595,238.464,59676
537.582,238.033,59788
537.57,237.601,59743
537.557,237.169,59715
537.545,236.738,59716
537.532,236.306,59782
537.52,235.874,59727
537.507,235.442,59710
537.495,235.011,59778
537.482,234.579,59722
537.47,234.147,59753
537.457,233.715,59772
537.445,233.283,59732
537.432,232.852,59733
537.42,232.42,59689
537.407,231.988,59723
537.395,231.556,59766
537.383,231.124,59743
537.37,230.692,59713
537.358,230.26,59758
537.345,229.828,59747
537.333,229.396,59811
537.32,228.964,59751
537.308,228.532,59787
537.295,228.1,59649
537.283,227.668,59741
537.27,227.236,59800
537.258,226.803,59643
537.245,226.371,59643
537.233,225.939,59745
537.22,225.507,59713
537.208,225.075,59680
537.195,224.642,59804
537.183,224.21,59691
537.17,223.778,59732
537.158,223.345,59710
537.146,222.913,59750
537.133,222.481,59725
537.121,222.048,59821
537.108,221.616,59736
537.096,221.184,59770
537.083,220.751,59718
537.071,220.319,59763
537.058,219.886,59810
537.046,219.454,59780
537.033,219.021,59691
537.021,218.589,59787
537.008,218.156,59806
536.996,217.724,59818
536.983,217.291,59725
536.971,216.858,59715
536.958,216.426,59709
536.946,215.993,59778
536.933,215.561,59647
536.921,215.128,59758
536.909,214.695,59737
536.896,214.262,59724
536.884,213.83,59788
536.871,213.397,59781
536.859,212.964,59752
536.846,212.531,59808
536.834,212.098,59837
536.821,211.666,59730
536.809,211.233,59705
536.796,210.8,59725
536.784,210.367,59669
536.771,209.934,59711
536.759,209.501,59707
536.746,209.068,59802
536.734,208.635,59753
536.721,208.202,59731
536.709,207.769,59695
536.696,207.336,59735
536.684,206.903,59721
536.671,206.47,59740
536.659,206.037,59789
536.647,205.604,59776
536.634,205.17,59644
536.622,204.737,59707
536.609,204.304,59720
536.597,203.871,59664
536.584,203.438,59771
536.572,203.004,59688
536.559,202.571,59746
536.547,202.138,59712
536.534,201.705,59755
536.522,201.271,59829
536.509,200.838,59703
536.497,200.404,59713
536.484,199.971,59696
536.472,199.538,59734
536.459,199.104,59663
536.447,198.671,59655
536.434,198.237,59693
536.422,197.804,59695
536.41,197.37,59802
536.397,196.937,59757
536.385,196.503,59707
536.372,196.07,59760
536.36,195.636,59736
536.347,195.202,59669
536.335,194.769,59705
536.322,194.335,59768
536.31,193.901,59719
536.297,193.468,59744
536.285,193.034,59758
536.272,192.6,59676
536.26,192.167,59692
536.247,191.733,59807
536.235,191.299,59736
536.222,190.865,59711
536.21,190.431,59667
536.197,189.997,59698
536.185,189.564,59838
536.173,189.13,59752
536.16,188.696,59740
536.148,188.262,59638
536.135,187.828,59672
536.123,187.394,59758
536.11,186.96,59692
536.098,186.526,59743
536.085,186.092,59700
536.073,185.658,59725
536.06,185.224,59735
536.048,184.79,59767
536.035,184.355,59653
536.023,183.921,59753
536.01,183.487,59709
535.998,183.053,59714
535.985,182.619,59690
535.973,182.185,59827
535.96,181.75,59738
535.948,181.316,59629
535.936,180.882,59712
535.923,180.447,59753
535.911,180.013,59722
535.898,179.579,59803
535.886,179.144,59710
535.873,178.71,59717
535.861,178.276,59731
535.848,177.841,59751
535.836,177.407,59783
535.823,176.972,59761
535.811,176.538,59711
535.798,176.103,59655
535.786,175.669,59730
535.773,175.234,59793
535.761,174.8,59746
535.748,174.365,59649
535.736,173.931,59614
535.723,173.496,59678
535.711,173.061,59729
535.699,172.627,59699
535.686,172.192,59731
535.674,171.757,59686
535.661,171.322,59747
535.649,170.888,59737
535.636,170.453,59782
535.624,170.018,59611
535.611,169.583,59858
535.599,169.149,59711
535.586,168.714,59733
535.574,168.279,59709
535.561,167.844,59684
535.549,167.409,59709
535.536,166.974,59775
535.524,166.539,59754
535.511,166.104,59714
535.499,165.669,59782
535.486,165.234,59794
535.474,164.799,59739
535.462,164.364,59796
535.449,163.929,59769
535.437,163.494,59813
535.424,163.059,59753
535.412,162.624,59697
535.399,162.189,59716
535.387,161.753,59816
535.374,161.318,59763
535.362,160.883,59703
535.349,160.448,59748
535.337,160.012,59720
535.324,159.577,59683
535.312,159.142,59729
535.299,158.707,59768
535.287,158.271,59757
535.274,157.836,59715
535.262,157.401,59743
535.249,156.965,59777
535.237,156.53,59777
535.225,156.094,59684
535.212,155.659,59694
535.2,155.223,59748
535.187,154.788,59793
535.175,154.352,59730
535.162,153.917,59755
535.15,153.481,59697
535.137,153.046,59785
535.125,152.61,59728
535.112,152.174,59785
535.1,151.739,59703
535.087,151.303,59762
535.075,150.867,59741
535.062,150.432,59661
535.05,149.996,59780
535.037,149.56,59747
535.025,149.125,59763
535.012,148.689,59727
535,148.253,59737
534.988,147.817,59680
534.975,147.381,59770
534.963,146.945,59751
534.95,146.51,59724
534.938,146.074,59717
534.925,145.638,59778
534.913,145.202,59695
534.9,144.766,59670
534.888,144.33,59766
534.875,143.894,59754
534.863,143.458,59762
534.85,143.022,59687
534.838,142.586,59737
534.825,142.15,59798
534.813,141.714,59739
534.8,141.277,59674
534.788,140.841,59682
534.775,140.405,59786
534.763,139.969,59719
534.75,139.533,59659
534.738,139.096,59731
534.726,138.66,59620
534.713,138.224,59687
534.701,137.788,59796
534.688,137.351,59698
534.676,136.915,59774
534.663,136.479,59801
534.651,136.042,59816
534.638,135.606,59735
534.626,135.169,59709
534.613,134.733,59760
534.601,134.297,59759
534.588,133.86,59713
534.576,133.424,59772
534.563,132.987,59782
534.551,132.551,59709
534.538,132.114,59720
534.526,131.677,59730
534.513,131.241,59706
534.501,130.804,59739
534.489,130.368,59706
534.476,129.931,59738
534.464,129.494,59713
534.451,129.058,59815
534.439,128.621,59755
534.426,128.184,59715
534.414,127.747,59678
534.401,127.311,59695
534.389,126.874,59731
534.376,126.437,59677
534.364,126,59769
534.351,125.563,59720
534.339,125.126,59733
534.326,124.69,59637
534.314,124.253,59741
534.301,123.816,59747
534.289,123.379,59717
534.276,122.942,59696
534.264,122.505,59763
534.252,122.068,59789
534.239,121.631,59690
534.227,121.194,59730
534.214,120.756,59726
534.202,120.319,59745
534.189,119.882,59697
534.177,119.445,59783
534.164,119.008,59675
534.152,118.571,59678
534.139,118.134,59772
534.127,117.696,59721
534.114,117.259,59723
534.102,116.822,59706
534.089,116.385,59764
534.077,115.947,59658
534.064,115.51,59772
534.052,115.073,59779
534.039,114.635,59739
534.027,114.198,59772
534.015,113.76,59767
534.002,113.323,59731
533.99,112.885,59770
533.977,112.448,59785
533.965,112.01,59745
533.952,111.573,59752
533.94,111.135,59674
533.927,110.698,59776
533.915,110.26,59708
533.902,109.823,59736
533.89,109.385,59735
533.877,108.947,59734
533.865,108.51,59799
533.852,108.072,59678
533.84,107.634,59707
533.827,107.197,59651
533.815,106.759,59695
533.802,106.321,59678
533.79,105.883,59714
533.778,105.446,59779
533.765,105.008,59742
533.753,104.57,59662
533.74,104.132,59611
533.728,103.694,59716
533.715,103.256,59730
533.703,102.818,59686
533.69,102.38,59710
533.678,101.943,59723
533.665,101.505,59686
533.653,101.067,59732
533.64,100.629,59731
533.628,100.19,59737
533.615,99.7524,59698
533.603,99.3143,59810
533.59,98.8762,59767
533.578,98.4381,59765
533.565,97.9999,59697
533.553,97.5618,59784
533.541,97.1236,59730
533.528,96.6854,59667
533.516,96.2471,59773
533.503,95.8089,59700
533.491,95.3706,59685
533.478,94.9323,59787
533.466,94.494,59813
533.453,94.0557,59763
533.441,93.6173,59733
533.428,93.1789,59712
533.416,92.7406,59735
533.403,92.3021,59748
533.391,91.8637,59733
533.378,91.4252,59699
533.366,90.9868,59704
533.353,90.5483,59707
533.341,90.1098,59804
533.328,89.6712,59747
533.316,89.2327,59766
533.304,88.7941,59774
533.291,88.3555,59729
533.279,87.9169,59718
533.266,87.4782,59763
533.254,87.0396,59735
533.241,86.6009,59796
533.229,86.1622,59690
533.216,85.7235,59766
533.204,85.2847,59775
533.191,84.846,59729
533.179,84.4072,59756
533.166,83.9684,59750
533.154,83.5295,59711
533.141,83.0907,59734
533.129,82.6518,59705
533.116,82.213,59777
533.104,81.774,59711
533.091,81.3351,59737
533.079,80.8962,59720
533.067,80.4572,59756
533.054,80.0182,59779
533.042,79.5792,59786
533.029,79.1402,59723
533.017,78.7011,59730
533.004,78.262,59732
532.992,77.823,59697
532.979,77.3838,59731
532.967,76.9447,59711
532.954,76.5056,59740
532.942,76.0664,59728
532.929,75.6272,59698
532.917,75.188,59720
532.904,74.7487,59747
532.892,74.3095,59766
532.879,73.8702,59708
532.867,73.4309,59783
532.854,72.9916,59724
532.842,72.5523,59678
532.83,72.1129,59693
532.817,71.6735,59715
532.805,71.2341,59782
532.792,70.7947,59728
532.78,70.3553,59683
532.767,69.9158,59799
532.755,69.4763,59836
532.742,69.0368,59696
532.73,68.5973,59664
532.717,68.1577,59685
532.705,67.7182,59633
532.692,67.2786,59753
532.68,66.839,59771
532.667,66.3994,59764
532.655,65.9597,59746
532.642,65.52,59706
532.63,65.0804,59792
532.617,64.6406,59770
532.605,64.2009,59716
532.592,63.7612,59750
532.58,63.3214,59741
532.568,62.8816,59763
532.555,62.4418,59733
532.543,62.002,59773
532.53,61.5621,59739
532.518,61.1222,59709
532.505,60.6823,59705
532.493,60.2424,59759
532.48,59.8025,59795
532.468,59.3625,59758
532.455,58.9226,59742
532.443,58.4826,59720
532.43,58.0425,59766
532.418,57.6025,59741
532.405,57.1624,59805
532.393,56.7224,59771
532.38,56.2823,59762
532.368,55.8421,59759
532.355,55.402,59768
532.343,54.9618,59776
532.331,54.5217,59762
532.318,54.0814,59724
532.306,53.6412,59738
532.293,53.201,59817
532.281,52.7607,59795
532.268,52.3204,59768
532.256,51.8801,59831
532.243,51.4398,59672
532.231,50.9994,59774
532.218,50.5591,59771
532.206,50.1187,59686
532.193,49.6783,59745
532.181,49.2378,59794
532.168,48.7974,59668
532.156,48.3569,59710
532.143,47.9164,59782
532.131,47.4759,59717
532.118,47.0354,59787
532.106,46.5948,59755
532.094,46.1543,59767
532.081,45.7137,59811
532.069,45.273,59740
532.056,44.8324,59810
532.044,44.3917,59759
532.031,43.9511,59749
532.019,43.5104,59746
532.006,43.0697,59785
531.994,42.6289,59775
531.981,42.1881,59807
531.969,41.7474,59773
531.956,41.3066,59679
531.944,40.8657,59761
531.931,40.4249,59740
531.919,39.984,59775
531.906,39.5431,59785
531.894,39.1022,59733
531.881,38.6613,59753
531.869,38.2204,59775
531.857,37.7794,59809
531.844,37.3384,59796
531.832,36.8974,59713
531.819,36.4564,59808
531.807,36.0153,59824
531.794,35.5743,59818
531.782,35.1332,59783
531.769,34.692,59779
531.757,34.2509,59732
531.744,33.8098,59771
531.732,33.3686,59814
531.719,32.9274,59697
531.707,32.4862,59703
531.694,32.0449,59725
531.682,31.6037,59830
531.669,31.1624,59716
531.657,30.7211,59840
531.644,30.2798,59820
531.632,29.8384,59747
531.62,29.3971,59789
531.607,28.9557,59759
531.595,28.5143,59754
531.582,28.0729,59772
531.57,27.6314,59815
531.557,27.19,59822
531.545,26.7485,59821
531.532,26.307,59686
531.52,25.8654,59780
531.507,25.4239,59848
531.495,24.9823,59811
531.482,24.5407,59907
531.47,24.0991,59761
531.457,23.6575,59863
531.445,23.2158,59849
531.432,22.7742,59766
531.42,22.3325,59815
531.407,21.8908,59864
531.395,21.449,59854
531.383,21.0073,59793
531.37,20.5655,59861
531.358,20.1237,59780
531.345,19.6819,59839
531.333,19.2401,59761
531.32,18.7982,59865
531.308,18.3563,59795
531.295,17.9144,59826
531.283,17.4725,59874
531.27,17.0306,59911
531.258,16.5886,59815
531.245,16.1466,59767
531.233,15.7046,59892
531.22,15.2626,59899
531.208,14.8205,59931
531.195,14.3785,59860
531.183,13.9364,59883
531.17,13.4943,59824
531.158,13.0521,59870
531.146,12.61,59938
531.133,12.1678,59922
531.121,11.7256,59976
531.108,11.2834,59981
531.096,10.8412,59991
531.083,10.3989,60077
531.071,9.95666,59972
531.058,9.51436,60050
531.046,9.07205,60062
531.033,8.62971,60016
531.021,8.18736,60146
531.008,7.74498,60084
530.996,7.30258,60154
530.983,6.86016,60286
530.971,6.41772,60610
530.958,5.97526,60489
530.946,5.53278,60541
530.933,5.09027,60755
530.921,4.64775,60947
530.909,4.20521,75207
530.896,3.76264,176819
530.884,3.32006,295431
530.871,2.87745,452160
530.859,2.43482,632470
530.846,1.99217,884394
530.834,1.54951,1380972
530.821,1.10682,1421802
530.809,0.664105,1733532
530.796,0.221373,2397387
530.784,-0.221379,2405019
530.771,-0.664152,1969443
530.759,-1.10695,1486217
530.746,-1.54976,997687
530.734,-1.9926,649204
530.721,-2.43545,424656
530.709,-2.87833,292794
530.696,-3.32123,233071
530.684,-3.76415,205217
530.671,-4.20708,182449
530.659,-4.65005,139107
530.647,-5.09303,114827
530.634,-5.53603,96400
530.622,-5.97905,84498
530.609,-6.4221,76482
530.597,-6.86516,70152
530.584,-7.30824,65225
530.572,-7.75135,62462
530.559,-8.19448,61515
530.547,-8.63763,61279
530.534,-9.08079,61010
530.522,-9.52398,61028
530.509,-9.96719,61089
530.497,-10.4104,60934
530.484,-10.8537,61032
530.472,-11.297,60917
530.459,-11.7402,60949
530.447,-12.1836,61050
530.434,-12.6269,60821
530.422,-13.0703,60826
530.41,-13.5136,60968
530.397,-13.957,60979
530.385,-14.4004,60959
530.372,-14.8439,60969
530.36,-15.2873,60940
530.347,-15.7308,60955
530.335,-16.1743,60887
530.322,-16.6179,60878
530.31,-17.0614,60849
530.297,-17.505,60913
530.285,-17.9485,61033
530.272,-18.3922,61050
530.26,-18.8358,61021
530.247,-19.2794,61168
530.235,-19.7231,61428
530.222,-20.1668,61429
530.21,-20.6105,61613
530.197,-21.0542,61737
530.185,-21.498,61598
530.173,-21.9418,61825
530.16,-22.3856,61938
530.148,-22.8294,61726
530.135,-23.2732,61703
530.123,-23.7171,61984
530.11,-24.1609,61754
530.098,-24.6048,61391
530.085,-25.0488,61773
530.073,-25.4927,61852
530.06,-25.9367,61631
530.048,-26.3806,61677
530.035,-26.8246,61950
530.023,-27.2687,61766
530.01,-27.7127,61461
529.998,-28.1568,61549
529.985,-28.6009,61701
529.973,-29.045,61365
529.96,-29.4891,61366
529.948,-29.9333,61378
529.936,-30.3774,61472
529.923,-30.8216,61396
529.911,-31.2658,61155
529.898,-31.7101,61181
529.886,-32.1543,61237
529.873,-32.5986,61291
529.861,-33.0429,61189
529.848,-33.4872,61173
529.836,-33.9315,61182
529.823,-34.3759,61185
529.811,-34.8203,61198
529.798,-35.2647,61093
529.786,-35.7091,61042
529.773,-36.1535,61187
529.761,-36.598,60885
529.748,-37.0425,60864
529.736,-37.487,60864
529.723,-37.9315,61001
529.711,-38.3761,60932
529.699,-38.8206,60712
529.686,-39.2652,60891
529.674,-39.7098,60866
529.661,-40.1545,60738
529.649,-40.5991,60590
529.636,-41.0438,60466
529.624,-41.4885,60489
529.611,-41.9332,60456
529.599,-42.3779,60340
529.586,-42.8227,60387
529.574,-43.2675,60431
529.561,-43.7123,60389
529.549,-44.1571,60276
529.536,-44.6019,60223
529.524,-45.0468,60258
529.511,-45.4917,60118
529.499,-45.9366,60198
529.486,-46.3815,60178
529.474,-46.8265,60046
529.462,-47.2714,60026
529.449,-47.7164,60100
529.437,-48.1614,60029
529.424,-48.6064,60020
529.412,-49.0515,59966
529.399,-49.4966,60051
529.387,-49.9417,60015
529.374,-50.3868,60029
529.362,-50.8319,60015
529.349,-51.2771,60056
529.337,-51.7222,60024
529.324,-52.1674,60137
529.312,-52.6127,60068
529.299,-53.0579,60154
529.287,-53.5032,60034
529.274,-53.9484,59992
529.262,-54.3937,60034
529.249,-54.8391,59978
529.237,-55.2844,60060
529.225,-55.7298,60047
529.212,-56.1752,59996
529.2,-56.6206,59990
529.187,-57.066,59986
529.175,-57.5114,60098
529.162,-57.9569,60033
529.15,-58.4024,59992
529.137,-58.8479,59986
529.125,-59.2934,59989
529.112,-59.739,60032
529.1,-60.1846,59979
529.087,-60.6302,59966
529.075,-61.0758,60009
529.062,-61.5214,60095
529.05,-61.9671,60050
529.037,-62.4128,60027
529.025,-62.8585,59949
529.012,-63.3042,60055
529,-63.7499,59992
528.988,-64.1957,60007
528.975,-64.6415,59993
528.963,-65.0873,60090
528.95,-65.5331,59929
528.938,-65.979,59919
528.925,-66.4248,60017
528.913,-66.8707,60050
528.9,-67.3166,60028
528.888,-67.7626,60115
528.875,-68.2085,60113
528.863,-68.6545,60067
528.85,-69.1005,60089
528.838,-69.5465,59939
528.825,-69.9925,59961
528.813,-70.4386,59997
528.8,-70.8847,59974
528.788,-71.3308,60018
528.775,-71.7769,59892
528.763,-72.223,59980
528.75,-72.6692,59958
528.738,-73.1154,59940
528.726,-73.5616,60016
528.713,-74.0078,60013
528.701,-74.4541,59989
528.688,-74.9003,59962
528.676,-75.3466,59988
528.663,-75.7929,59972
528.651,-76.2393,60028
528.638,-76.6856,60037
528.626,-77.132,60036
528.613,-77.5784,60056
528.601,-78.0248,60077
528.588,-78.4713,60008
528.576,-78.9177,60038
528.563,-79.3642,59879
528.551,-79.8107,60091
528.538,-80.2572,59986
528.526,-80.7038,60016
528.513,-81.1503,60000
528.501,-81.5969,60126
528.489,-82.0435,60038
528.476,-82.4901,60008
528.464,-82.9368,60046
528.451,-83.3835,60152
528.439,-83.8301,60036
528.426,-84.2769,60095
528.414,-84.7236,60036
528.401,-85.1703,60000
528.389,-85.6171,59995
528.376,-86.0639,60042
528.364,-86.5107,60021
528.351,-86.9576,60058
528.339,-87.4044,59979
528.326,-87.8513,60053
528.314,-88.2982,59978
528.301,-88.7451,60016
528.289,-89.1921,60045
528.276,-89.639,59993
528.264,-90.086,59890
528.252,-90.533,60032
528.239,-90.9801,59945
528.227,-91.4271,59951
528.214,-91.8742,59957
528.202,-92.3213,59986
528.189,-92.7684,60013
528.177,-93.2155,59870
528.164,-93.6627,59997
528.152,-94.1099,60009
528.139,-94.557,60072
528.127,-95.0043,60022
528.114,-95.4515,60008
528.102,-95.8988,59845
528.089,-96.346,60059
528.077,-96.7934,59980
528.064,-97.2407,59973
528.052,-97.688,60020
528.039,-98.1354,60071
528.027,-98.5828,60092
528.015,-99.0302,60003
528.002,-99.4776,60004
527.99,-99.9251,60026
527.977,-100.373,59983
527.965,-100.82,60026
527.952,-101.268,60039
527.94,-101.715,59916
527.927,-102.163,59984
527.915,-102.61,60039
527.902,-103.058,59916
527.89,-103.505,60041
527.877,-103.953,60024
527.865,-104.401,60017
527.852,-104.848,60051
527.84,-105.296,60050
527.827,-105.744,59983
527.815,-106.192,59955
527.802,-106.639,60015
527.79,-107.087,59905
527.778,-107.535,59987
527.765,-107.983,59998
527.753,-108.431,59985
527.74,-108.879,60035
527.728,-109.326,59953
527.715,-109.774,59977
527.703,-110.222,60008
527.69,-110.67,60038
527.678,-111.118,59949
527.665,-111.566,59943
527.653,-112.014,60017
527.64,-112.462,60002
527.628,-112.91,59974
527.615,-113.358,59986
527.603,-113.807,59979
527.59,-114.255,59932
527.578,-114.703,59996
527.565,-115.151,60044
527.553,-115.599,60005
527.541,-116.047,60054
527.528,-116.496,59974
527.516,-116.944,59969
527.503,-117.392,60010
527.491,-117.84,60031
527.478,-118.289,59970
527.466,-118.737,60074
527.453,-119.185,60040
527.441,-119.634,60019
527.428,-120.082,60035
527.416,-120.531,59999
527.403,-120.979,60002
527.391,-121.428,60046
527.378,-121.876,60024
527.366,-122.325,59996
527.353,-122.773,59985
527.341,-123.222,60079
527.328,-123.67,60065
527.316,-124.119,60053
527.304,-124.567,59924
527.291,-125.016,60074
527.279,-125.465,59964
527.266,-125.913,59959
527.254,-126.362,59973
527.241,-126.811,59978
527.229,-127.26,60008
527.216,-127.708,59983
527.204,-128.157,60018
527.191,-128.606,59998
527.179,-129.055,59930
527.166,-129.504,60008
527.154,-129.952,60052
527.141,-130.401,59998
527.129,-130.85,59983
527.116,-131.299,59975
527.104,-131.748,60004
527.091,-132.197,59901
527.079,-132.646,60021
527.067,-133.095,59910
527.054,-133.544,59912
527.042,-133.993,59903
527.029,-134.442,59973
527.017,-134.891,60020
527.004,-135.341,59956
526.992,-135.79,60042
526.979,-136.239,59957
526.967,-136.688,59947
526.954,-137.137,59998
526.942,-137.587,59956
526.929,-138.036,60039
526.917,-138.485,60048
526.904,-138.934,59989
526.892,-139.384,60055
526.879,-139.833,59998
526.867,-140.282,60049
526.854,-140.732,59937
526.842,-141.181,59995
526.83,-141.631,60069
526.817,-142.08,60095
526.805,-142.53,59986
526.792,-142.979,60012
526.78,-143.429,59961
526.767,-143.878,60008
526.755,-144.328,59948
526.742,-144.777,60044
526.73,-145.227,60025
526.717,-145.676,59944
526.705,-146.126,59997
526.692,-146.576,59978
526.68,-147.025,60005
526.667,-147.475,59987
526.655,-147.925,59976
526.642,-148.375,59990
526.63,-148.824,59886
526.617,-149.274,59991
526.605,-149.724,59960
526.592,-150.174,59973
526.58,-150.624,59963
526.568,-151.073,59998
526.555,-151.523,60031
526.543,-151.973,60002
526.53,-152.423,60001
526.518,-152.873,60033
526.505,-153.323,59979
526.493,-153.773,59945
526.48,-154.223,59981
526.468,-154.673,59958
526.455,-155.123,60094
526.443,-155.573,60031
526.43,-156.023,59991
526.418,-156.474,59965
526.405,-156.924,60010
526.393,-157.374,59993
526.38,-157.824,59988
526.368,-158.274,60004
526.355,-158.724,59942
526.343,-159.175,59934
526.331,-159.625,59945
526.318,-160.075,59997
526.306,-160.526,59971
526.293,-160.976,59963
526.281,-161.426,60042
526.268,-161.877,59939
526.256,-162.327,60055
526.243,-162.778,59942
526.231,-163.228,59947
526.218,-163.678,60050
526.206,-164.129,60001
526.193,-164.579,60028
526.181,-165.03,60035
526.168,-165.481,59989
526.156,-165.931,59970
526.143,-166.382,60000
526.131,-166.832,59959
526.118,-167.283,59920
526.106,-167.734,60041
526.094,-168.184,60147
526.081,-168.635,60062
526.069,-169.086,59943
526.056,-169.536,60016
526.044,-169.987,60059
526.031,-170.438,59886
526.019,-170.889,60002
526.006,-171.34,60061
525.994,-171.791,59988
525.981,-172.241,59991
525.969,-172.692,60048
525.956,-173.143,60075
525.944,-173.594,59970
525.931,-174.045,60030
525.919,-174.496,59966
525.906,-174.947,59922
525.894,-175.398,59975
525.881,-175.849,60123
525.869,-176.3,60062
525.857,-176.751,60004
525.844,-177.202,60028
525.832,-177.654,60013
525.819,-178.105,60029
525.807,-178.556,60147
525.794,-179.007,59951
525.782,-179.458,59997
525.769,-179.91,59955
525.757,-180.361,60025
525.744,-180.812,60000
525.732,-181.263,60011
525.719,-181.715,59988
525.707,-182.166,59951
525.694,-182.617,59916
525.682,-183.069,60061
525.669,-183.52,60015
525.657,-183.972,60071
525.644,-184.423,59960
525.632,-184.875,60029
525.62,-185.326,59970
525.607,-185.778,60017
525.595,-186.229,60004
525.582,-186.681,59931
525.57,-187.132,59976
525.557,-187.584,60058
525.545,-188.035,59980
525.532,-188.487,59927
525.52,-188.939,60002
525.507,-189.39,59942
525.495,-189.842,60004
525.482,-190.294,59969
525.47,-190.746,60012
525.457,-191.197,59940
525.445,-191.649,60024
525.432,-192.101,60086
525.42,-192.553,59995
525.407,-193.005,59952
525.395,-193.457,59943
525.383,-193.909,59951
525.37,-194.36,59949
525.358,-194.812,60072
525.345,-195.264,59990
525.333,-195.716,59997
525.32,-196.168,60035
525.308,-196.62,59977
525.295,-197.072,59909
525.283,-197.525,60062
525.27,-197.977,59985
525.258,-198.429,60019
525.245,-198.881,59922
525.233,-199.333,60054
525.22,-199.785,59918
525.208,-200.237,59910
525.195,-200.69,59934
525.183,-201.142,60010
525.17,-201.594,59994
525.158,-202.046,59932
525.146,-202.499,60017
525.133,-202.951,60098
525.121,-203.403,60049
525.108,-203.856,59994
525.096,-204.308,60024
525.083,-204.761,59998
525.071,-205.213,60064
525.058,-205.666,59990
525.046,-206.118,60090
525.033,-206.571,60041
525.021,-207.023,60011
525.008,-207.476,60003
524.996,-207.928,60033
524.983,-208.381,60025
524.971,-208.833,60010
524.958,-209.286,59935
524.946,-209.739,60046
524.933,-210.191,59932
524.921,-210.644,59956
524.909,-211.097,60046
524.896,-211.549,60058
524.884,-212.002,60056
524.871,-212.455,59989
524.859,-212.908,59998
524.846,-213.361,60000
524.834,-213.814,59957
524.821,-214.266,59972
524.809,-214.719,60107
524.796,-215.172,60047
524.784,-215.625,60000
524.771,-216.078,59918
524.759,-216.531,59981
524.746,-216.984,59974
524.734,-217.437,60091
524.721,-217.89,59906
524.709,-218.343,60029
524.696,-218.796,59894
524.684,-219.249,59952
524.671,-219.702,60032
524.659,-220.156,59940
524.647,-220.609,60047
524.634,-221.062,59908
524.622,-221.515,60004
524.609,-221.968,59988
524.597,-222.422,59950
524.584,-222.875,59937
524.572,-223.328,59987
524.559,-223.782,59940
524.547,-224.235,60057
524.534,-224.688,60004
524.522,-225.142,59955
524.509,-225.595,60018
524.497,-226.049,60029
524.484,-226.502,60039
524.472,-226.955,60080
524.459,-227.409,60033
524.447,-227.862,59964
524.434,-228.316,59988
524.422,-228.77,59973
524.41,-229.223,60049
524.397,-229.677,60000
524.385,-230.13,60026
524.372,-230.584,59977
524.36,-231.038,60082
524.347,-231.491,59956
524.335,-231.945,59922
524.322,-232.399,60029
524.31,-232.853,59940
524.297,-233.306,60035
524.285,-233.76,60015
524.272,-234.214,60023
524.26,-234.668,59993
524.247,-235.122,60040
524.235,-235.576,59987
524.222,-236.029,59947
524.21,-236.483,59984
524.197,-236.937,59940
524.185,-237.391,59875
524.173,-237.845,60047
524.16,-238.299,59991
524.148,-238.753,60071
524.135,-239.207,59982
524.123,-239.661,59960
524.11,-240.116,59993
524.098,-240.57,60003
524.085,-241.024,59949
524.073,-241.478,60124
524.06,-241.932,59947
524.048,-242.386,60017
524.035,-242.841,59965
524.023,-243.295,60009
524.01,-243.749,60035
523.998,-244.203,59989
523.985,-244.658,60074
523.973,-245.112,60039
523.96,-245.566,60061
523.948,-246.021,60039
523.936,-246.475,60021
523.923,-246.93,59933
523.911,-247.384,59957
523.898,-247.839,60021
523.886,-248.293,60001
523.873,-248.748,60016
523.861,-249.202,60012
523.848,-249.657,59952
523.836,-250.111,59945
523.823,-250.566,60000
523.811,-251.02,59973
523.798,-251.475,59877
523.786,-251.93,60077
523.773,-252.384,60046
523.761,-252.839,59988
523.748,-253.294,60015
523.736,-253.749,59988
523.723,-254.203,60072
523.711,-254.658,59977
523.699,-255.113,60088
523.686,-255.568,59914
523.674,-256.023,59998
523.661,-256.478,59928
523.649,-256.932,60065
523.636,-257.387,59926
523.624,-257.842,59990
523.611,-258.297,59955
523.599,-258.752,59998
523.586,-259.207,60032
523.574,-259.662,59983
523.561,-260.117,60000
523.549,-260.572,59932
523.536,-261.028,60049
523.524,-261.483,59908
523.511,-261.938,60003
523.499,-262.393,59930
523.486,-262.848,59963
523.474,-263.303,59935
523.462,-263.759,59942
523.449,-264.214,59954
523.437,-264.669,60007
523.424,-265.124,60005
523.412,-265.58,60004
523.399,-266.035,59920
523.387,-266.49,60033
523.374,-266.946,59998
523.362,-267.401,59918
523.349,-267.857,59951
523.337,-268.312,59922
523.324,-268.767,59854
523.312,-269.223,59999
523.299,-269.678,60109
523.287,-270.134,60110
523.274,-270.59,59873
523.262,-271.045,59991
523.249,-271.501,59928
523.237,-271.956,59959
523.225,-272.412,60069
523.212,-272.868,59964
523.2,-273.323,60015
523.187,-273.779,59950
523.175,-274.235,59986
523.162,-274.69,59992
523.15,-275.146,59924
523.137,-275.602,59973
523.125,-276.058,60010
523.112,-276.514,60026
523.1,-276.97,60004
523.087,-277.425,59995
523.075,-277.881,60006
523.062,-278.337,60014
523.05,-278.793,59907
523.037,-279.249,60045
523.025,-279.705,59962
523.012,-280.161,59991
523,-280.617,59945
522.988,-281.073,59947
522.975,-281.529,59974
522.963,-281.985,60012
522.95,-282.441,60056
522.938,-282.898,59986
522.925,-283.354,59947
522.913,-283.81,59923
522.9,-284.266,59974
522.888,-284.722,59957
522.875,-285.179,60036
522.863,-285.635,59983
522.85,-286.091,60016
522.838,-286.548,59968
522.825,-287.004,59985
522.813,-287.46,59989
522.8,-287.917,60041
522.788,-288.373,59991
522.775,-288.829,59991
522.763,-289.286,59942
522.75,-289.742,60032
522.738,-290.199,59980
522.726,-290.655,59929
522.713,-291.112,59988
522.701,-291.568,59991
522.688,-292.025,59845
522.676,-292.482,60033
522.663,-292.938,59984
522.651,-293.395,59986
522.638,-293.851,59999
522.626,-294.308,59982
522.613,-294.765,59964
522.601,-295.222,59952
522.588,-295.678,59930
522.576,-296.135,59965
522.563,-296.592,60011
522.551,-297.049,59912
522.538,-297.506,60021
522.526,-297.962,59918
522.513,-298.419,59948
522.501,-298.876,59964
522.489,-299.333,59972
522.476,-299.79,59969
522.464,-300.247,60021
522.451,-300.704,60050