File: tomke/20240809_Si_on_TiO2/20240809/raw_data/Si_0A_30sec_4acc_60mW_695nm_bg.txt
Wavelength(nm), Raman shift(cm^-1), Intensity(counts)
702.12,661.884,59668
702.078,661.022,60079
702.035,660.16,59992
701.993,659.298,60036
701.95,658.436,60040
701.908,657.574,59947
701.865,656.712,59965
701.823,655.85,60083
701.78,654.987,60057
701.738,654.125,60037
701.695,653.262,59969
701.653,652.399,60022
701.61,651.537,59877
701.568,650.674,59989
701.525,649.811,59949
701.483,648.947,59994
701.44,648.084,59907
701.398,647.221,59975
701.355,646.357,60026
701.313,645.494,59978
701.271,644.63,59950
701.228,643.766,60046
701.186,642.902,59904
701.143,642.038,59986
701.101,641.174,59999
701.058,640.31,59982
701.016,639.446,59937
700.973,638.582,60033
700.931,637.717,59986
700.888,636.852,59950
700.846,635.988,60005
700.803,635.123,59986
700.761,634.258,59968
700.718,633.393,60005
700.676,632.528,60003
700.633,631.663,59942
700.591,630.797,59971
700.548,629.932,60031
700.506,629.066,59927
700.463,628.201,60022
700.421,627.335,59997
700.379,626.469,59958
700.336,625.603,59994
700.294,624.737,59941
700.251,623.871,60023
700.209,623.004,60071
700.166,622.138,59966
700.124,621.271,60022
700.081,620.405,60014
700.039,619.538,59885
699.996,618.671,60017
699.954,617.804,59968
699.911,616.937,60027
699.869,616.07,60017
699.826,615.203,59959
699.784,614.336,60027
699.741,613.468,59937
699.699,612.601,59979
699.656,611.733,59982
699.614,610.865,60078
699.571,609.997,60042
699.529,609.129,59977
699.487,608.261,59983
699.444,607.393,60058
699.402,606.525,59895
699.359,605.657,59998
699.317,604.788,60053
699.274,603.919,60013
699.232,603.051,59991
699.189,602.182,60084
699.147,601.313,59968
699.104,600.444,60051
699.062,599.575,59976
699.019,598.706,59964
698.977,597.836,60012
698.934,596.967,60021
698.892,596.097,59959
698.849,595.228,60095
698.807,594.358,60005
698.764,593.488,60027
698.722,592.618,60018
698.679,591.748,59929
698.637,590.878,59994
698.595,590.007,60072
698.552,589.137,59944
698.51,588.266,59949
698.467,587.396,59975
698.425,586.525,60019
698.382,585.654,59958
698.34,584.783,59992
698.297,583.912,59964
698.255,583.041,59983
698.212,582.17,59939
698.17,581.299,59916
698.127,580.427,59980
698.085,579.556,59957
698.042,578.684,59980
698,577.812,59994
697.957,576.94,59984
697.915,576.068,59922
697.872,575.196,60013
697.83,574.324,60025
697.787,573.452,59973
697.745,572.579,59930
697.703,571.707,59907
697.66,570.834,59980
697.618,569.961,59982
697.575,569.088,59969
697.533,568.216,59957
697.49,567.342,59986
697.448,566.469,59973
697.405,565.596,60006
697.363,564.723,59967
697.32,563.849,59976
697.278,562.976,60033
697.235,562.102,59906
697.193,561.228,59941
697.15,560.354,60016
697.108,559.48,59995
697.065,558.606,60022
697.023,557.732,59954
696.98,556.858,60066
696.938,555.983,60009
696.895,555.109,60059
696.853,554.234,59984
696.811,553.359,60000
696.768,552.484,59978
696.726,551.609,59986
696.683,550.734,60016
696.641,549.859,59998
696.598,548.984,59963
696.556,548.108,59968
696.513,547.233,60042
696.471,546.357,60027
696.428,545.482,60079
696.386,544.606,60082
696.343,543.73,60002
696.301,542.854,59925
696.258,541.978,59997
696.216,541.101,59965
696.173,540.225,60028
696.131,539.349,60025
696.088,538.472,59999
696.046,537.595,60031
696.003,536.718,59889
695.961,535.842,59898
695.919,534.965,60059
695.876,534.087,59982
695.834,533.21,60045
695.791,532.333,59999
695.749,531.455,59973
695.706,530.578,60010
695.664,529.7,59989
695.621,528.823,59937
695.579,527.945,59961
695.536,527.067,59963
695.494,526.189,60073
695.451,525.31,59921
695.409,524.432,60039
695.366,523.554,59996
695.324,522.675,60015
695.281,521.797,59970
695.239,520.918,59945
695.196,520.039,59992
695.154,519.16,60002
695.111,518.281,59999
695.069,517.402,60027
695.027,516.523,60015
694.984,515.643,59956
694.942,514.764,59998
694.899,513.884,60044
694.857,513.005,60005
694.814,512.125,59946
694.772,511.245,60008
694.729,510.365,59994
694.687,509.485,59983
694.644,508.605,59972
694.602,507.724,60011
694.559,506.844,60059
694.517,505.963,59942
694.474,505.083,59946
694.432,504.202,59987
694.389,503.321,59991
694.347,502.44,59933
694.304,501.559,59962
694.262,500.678,60004
694.22,499.797,59991
694.177,498.915,59944
694.135,498.034,60048
694.092,497.152,59986
694.05,496.27,60048
694.007,495.388,59980
693.965,494.506,59974
693.922,493.624,59939
693.88,492.742,59980
693.837,491.86,60019
693.795,490.978,59987
693.752,490.095,59943
693.71,489.212,59934
693.667,488.33,59961
693.625,487.447,59980
693.582,486.564,59987
693.54,485.681,60085
693.497,484.798,60063
693.455,483.915,59929
693.412,483.031,60005
693.37,482.148,59914
693.328,481.264,60063
693.285,480.381,59983
693.243,479.497,59939
693.2,478.613,59942
693.158,477.729,59942
693.115,476.845,59955
693.073,475.961,60018
693.03,475.076,60059
692.988,474.192,59948
692.945,473.307,60042
692.903,472.423,59940
692.86,471.538,60042
692.818,470.653,59975
692.775,469.768,59967
692.733,468.883,59954
692.69,467.998,59972
692.648,467.112,59958
692.605,466.227,60055
692.563,465.342,60059
692.52,464.456,59925
692.478,463.57,59936
692.436,462.684,59983
692.393,461.798,60018
692.351,460.912,59930
692.308,460.026,60045
692.266,459.14,59984
692.223,458.253,59943
692.181,457.367,59977
692.138,456.48,59920
692.096,455.594,60010
692.053,454.707,60030
692.011,453.82,59930
691.968,452.933,59962
691.926,452.046,60056
691.883,451.158,59976
691.841,450.271,59984
691.798,449.384,59985
691.756,448.496,60044
691.713,447.608,59983
691.671,446.72,59987
691.628,445.833,60017
691.586,444.945,60001
691.544,444.056,59995
691.501,443.168,60026
691.459,442.28,59977
691.416,441.391,59962
691.374,440.503,59993
691.331,439.614,59942
691.289,438.725,59971
691.246,437.836,59993
691.204,436.947,59978
691.161,436.058,60039
691.119,435.169,60065
691.076,434.28,60019
691.034,433.39,59962
690.991,432.501,59979
690.949,431.611,59989
690.906,430.721,59987
690.864,429.831,59991
690.821,428.941,60019
690.779,428.051,59941
690.736,427.161,59936
690.694,426.271,59952
690.652,425.38,59986
690.609,424.49,60000
690.567,423.599,60006
690.524,422.708,59984
690.482,421.818,59923
690.439,420.927,59941
690.397,420.036,59981
690.354,419.144,59975
690.312,418.253,59919
690.269,417.362,60000
690.227,416.47,59965
690.184,415.578,59951
690.142,414.687,59912
690.099,413.795,59999
690.057,412.903,60005
690.014,412.011,59993
689.972,411.119,59995
689.929,410.226,60011
689.887,409.334,59951
689.844,408.441,59946
689.802,407.549,59957
689.76,406.656,60055
689.717,405.763,59959
689.675,404.87,60054
689.632,403.977,59944
689.59,403.084,59989
689.547,402.191,60071
689.505,401.297,59970
689.462,400.404,59914
689.42,399.51,60021
689.377,398.617,59995
689.335,397.723,59938
689.292,396.829,59951
689.25,395.935,60003
689.207,395.041,59961
689.165,394.146,60033
689.122,393.252,59927
689.08,392.357,60023
689.037,391.463,59968
688.995,390.568,60042
688.952,389.673,60057
688.91,388.778,59990
688.868,387.883,59918
688.825,386.988,59939
688.783,386.093,59969
688.74,385.197,59997
688.698,384.302,60038
688.655,383.406,59957
688.613,382.511,60051
688.57,381.615,60067
688.528,380.719,59971
688.485,379.823,60004
688.443,378.927,60022
688.4,378.03,59921
688.358,377.134,59989
688.315,376.238,59996
688.273,375.341,60087
688.23,374.444,59946
688.188,373.547,59976
688.145,372.651,59936
688.103,371.754,59970
688.06,370.856,59952
688.018,369.959,59923
687.976,369.062,60036
687.933,368.164,59983
702.12,661.884,59760
702.078,661.022,59977
702.035,660.16,60054
701.993,659.298,60016
701.95,658.436,60025
701.908,657.574,60003
701.865,656.712,60100
701.823,655.85,60000
701.78,654.987,59972
701.738,654.125,59990
701.695,653.262,60000
701.653,652.399,60005
701.61,651.537,59989
701.568,650.674,59983
701.525,649.811,60012
701.483,648.947,59914
701.44,648.084,60063
701.398,647.221,60004
701.355,646.357,59990
701.313,645.494,60071
701.271,644.63,60052
701.228,643.766,59976
701.186,642.902,60040
701.143,642.038,60034
701.101,641.174,60053
701.058,640.31,59924
701.016,639.446,60015
700.973,638.582,60022
700.931,637.717,59969
700.888,636.852,59974
700.846,635.988,59973
700.803,635.123,59991
700.761,634.258,59981
700.718,633.393,60032
700.676,632.528,60065
700.633,631.663,59966
700.591,630.797,60048
700.548,629.932,59997
700.506,629.066,59962
700.463,628.201,59956
700.421,627.335,60019
700.379,626.469,59984
700.336,625.603,60024
700.294,624.737,60047
700.251,623.871,60019
700.209,623.004,60019
700.166,622.138,59982
700.124,621.271,59948
700.081,620.405,60045
700.039,619.538,60028
699.996,618.671,59993
699.954,617.804,60095
699.911,616.937,59963
699.869,616.07,60004
699.826,615.203,59974
699.784,614.336,59958
699.741,613.468,59970
699.699,612.601,59985
699.656,611.733,59981
699.614,610.865,60016
699.571,609.997,60030
699.529,609.129,60043
699.487,608.261,59959
699.444,607.393,59947
699.402,606.525,60038
699.359,605.657,60049
699.317,604.788,59967
699.274,603.919,59982
699.232,603.051,60045
699.189,602.182,59959
699.147,601.313,60020
699.104,600.444,60033
699.062,599.575,59983
699.019,598.706,60034
698.977,597.836,60017
698.934,596.967,60061
698.892,596.097,59965
698.849,595.228,60115
698.807,594.358,59993
698.764,593.488,60012
698.722,592.618,60036
698.679,591.748,60011
698.637,590.878,59991
698.595,590.007,60071
698.552,589.137,59972
698.51,588.266,60036
698.467,587.396,59944
698.425,586.525,59968
698.382,585.654,59964
698.34,584.783,59945
698.297,583.912,59979
698.255,583.041,60043
698.212,582.17,60054
698.17,581.299,60006
698.127,580.427,59953
698.085,579.556,60004
698.042,578.684,60049
698,577.812,60014
697.957,576.94,60011
697.915,576.068,59988
697.872,575.196,59942
697.83,574.324,59971
697.787,573.452,59940
697.745,572.579,60000
697.703,571.707,60026
697.66,570.834,59938
697.618,569.961,60016
697.575,569.088,60055
697.533,568.216,59984
697.49,567.342,60057
697.448,566.469,59983
697.405,565.596,59986
697.363,564.723,59986
697.32,563.849,60028
697.278,562.976,59968
697.235,562.102,60006
697.193,561.228,60034
697.15,560.354,59978
697.108,559.48,60047
697.065,558.606,59972
697.023,557.732,59972
696.98,556.858,59973
696.938,555.983,59953
696.895,555.109,60007
696.853,554.234,60007
696.811,553.359,59971
696.768,552.484,60001
696.726,551.609,60048
696.683,550.734,60018
696.641,549.859,59989
696.598,548.984,60010
696.556,548.108,59930
696.513,547.233,60024
696.471,546.357,60012
696.428,545.482,59988
696.386,544.606,60003
696.343,543.73,60025
696.301,542.854,60014
696.258,541.978,60031
696.216,541.101,59951
696.173,540.225,59928
696.131,539.349,60027
696.088,538.472,60037
696.046,537.595,59998
696.003,536.718,59970
695.961,535.842,59972
695.919,534.965,59928
695.876,534.087,59984
695.834,533.21,60080
695.791,532.333,59997
695.749,531.455,60079
695.706,530.578,60077
695.664,529.7,59940
695.621,528.823,60042
695.579,527.945,60049
695.536,527.067,59928
695.494,526.189,60045
695.451,525.31,59993
695.409,524.432,59992
695.366,523.554,59939
695.324,522.675,60009
695.281,521.797,60029
695.239,520.918,59964
695.196,520.039,59986
695.154,519.16,60037
695.111,518.281,59986
695.069,517.402,60015
695.027,516.523,60017
694.984,515.643,60019
694.942,514.764,59929
694.899,513.884,60025
694.857,513.005,60009
694.814,512.125,60013
694.772,511.245,60063
694.729,510.365,60010
694.687,509.485,60002
694.644,508.605,59974
694.602,507.724,60043
694.559,506.844,59980
694.517,505.963,60036
694.474,505.083,59944
694.432,504.202,60028
694.389,503.321,60028
694.347,502.44,60010
694.304,501.559,60056
694.262,500.678,60008
694.22,499.797,59969
694.177,498.915,60130
694.135,498.034,60016
694.092,497.152,59990
694.05,496.27,59924
694.007,495.388,59944
693.965,494.506,60050
693.922,493.624,60029
693.88,492.742,59903
693.837,491.86,59974
693.795,490.978,59974
693.752,490.095,59994
693.71,489.212,60023
693.667,488.33,60046
693.625,487.447,60006
693.582,486.564,59984
693.54,485.681,60005
693.497,484.798,59957
693.455,483.915,59970
693.412,483.031,60029
693.37,482.148,60092
693.328,481.264,60088
693.285,480.381,59949
693.243,479.497,59978
693.2,478.613,59965
693.158,477.729,60018
693.115,476.845,60014
693.073,475.961,60006
693.03,475.076,60066
692.988,474.192,68126
692.945,473.307,59963
692.903,472.423,59992
692.86,471.538,60022
692.818,470.653,60040
692.775,469.768,59991
692.733,468.883,59996
692.69,467.998,60043
692.648,467.112,62668
692.605,466.227,59958
692.563,465.342,60021
692.52,464.456,60067
692.478,463.57,60049
692.436,462.684,59985
692.393,461.798,59970
692.351,460.912,60051
692.308,460.026,59976
692.266,459.14,60000
692.223,458.253,60007
692.181,457.367,59975
692.138,456.48,60040
692.096,455.594,59988
692.053,454.707,60035
692.011,453.82,59997
691.968,452.933,59908
691.926,452.046,59982
691.883,451.158,59955
691.841,450.271,59990
691.798,449.384,60029
691.756,448.496,60022
691.713,447.608,59899
691.671,446.72,60024
691.628,445.833,60048
691.586,444.945,59983
691.544,444.056,60002
691.501,443.168,59924
691.459,442.28,59967
691.416,441.391,59989
691.374,440.503,60018
691.331,439.614,59994
691.289,438.725,60065
691.246,437.836,60044
691.204,436.947,60092
691.161,436.058,59967
691.119,435.169,59913
691.076,434.28,59983
691.034,433.39,60013
690.991,432.501,59915
690.949,431.611,59908
690.906,430.721,60050
690.864,429.831,60031
690.821,428.941,60039
690.779,428.051,59985
690.736,427.161,59943
690.694,426.271,59908
690.652,425.38,59944
690.609,424.49,60038
690.567,423.599,59991
690.524,422.708,59942
690.482,421.818,60050
690.439,420.927,59984
690.397,420.036,60121
690.354,419.144,60028
690.312,418.253,59964
690.269,417.362,60024
690.227,416.47,59945
690.184,415.578,60047
690.142,414.687,59980
690.099,413.795,60064
690.057,412.903,59970
690.014,412.011,60000
689.972,411.119,60005
689.929,410.226,59989
689.887,409.334,59962
689.844,408.441,59977
689.802,407.549,59978
689.76,406.656,59998
689.717,405.763,60018
689.675,404.87,60103
689.632,403.977,59990
689.59,403.084,60002
689.547,402.191,60024
689.505,401.297,59963
689.462,400.404,59992
689.42,399.51,60055
689.377,398.617,59976
689.335,397.723,59984
689.292,396.829,59991
689.25,395.935,59918
689.207,395.041,59999
689.165,394.146,60050
689.122,393.252,59993
689.08,392.357,59971
689.037,391.463,60072
688.995,390.568,59956
688.952,389.673,59997
688.91,388.778,60031
688.868,387.883,60048
688.825,386.988,59934
688.783,386.093,59978
688.74,385.197,60032
688.698,384.302,59899
688.655,383.406,59997
688.613,382.511,60005
688.57,381.615,59982
688.528,380.719,60006
688.485,379.823,60081
688.443,378.927,60006
688.4,378.03,59993
688.358,377.134,59960
688.315,376.238,60022
688.273,375.341,60039
688.23,374.444,60025
688.188,373.547,60067
688.145,372.651,60053
688.103,371.754,59947
688.06,370.856,60052
688.018,369.959,60019
687.976,369.062,59969
687.933,368.164,60008
702.12,661.884,59611
702.078,661.022,59983
702.035,660.16,60056
701.993,659.298,59937
701.95,658.436,60073
701.908,657.574,60019
701.865,656.712,59985
701.823,655.85,59986
701.78,654.987,60059
701.738,654.125,60032
701.695,653.262,60011
701.653,652.399,59987
701.61,651.537,60023
701.568,650.674,59953
701.525,649.811,59995
701.483,648.947,59949
701.44,648.084,59950
701.398,647.221,59898
701.355,646.357,60048
701.313,645.494,60005
701.271,644.63,59945
701.228,643.766,60056
701.186,642.902,59997
701.143,642.038,60050
701.101,641.174,60001
701.058,640.31,60118
701.016,639.446,59997
700.973,638.582,59955
700.931,637.717,59970
700.888,636.852,59955
700.846,635.988,59991
700.803,635.123,60057
700.761,634.258,60051
700.718,633.393,59908
700.676,632.528,59970
700.633,631.663,59956
700.591,630.797,59941
700.548,629.932,59935
700.506,629.066,59925
700.463,628.201,59991
700.421,627.335,59991
700.379,626.469,59981
700.336,625.603,59957
700.294,624.737,59938
700.251,623.871,59975
700.209,623.004,60035
700.166,622.138,59974
700.124,621.271,59951
700.081,620.405,60053
700.039,619.538,60039
699.996,618.671,60025
699.954,617.804,59909
699.911,616.937,59952
699.869,616.07,59936
699.826,615.203,59961
699.784,614.336,60028
699.741,613.468,60036
699.699,612.601,60013
699.656,611.733,59992
699.614,610.865,59976
699.571,609.997,59986
699.529,609.129,59897
699.487,608.261,59961
699.444,607.393,59980
699.402,606.525,60006
699.359,605.657,60025
699.317,604.788,60059
699.274,603.919,60004
699.232,603.051,60049
699.189,602.182,60039
699.147,601.313,60092
699.104,600.444,60008
699.062,599.575,60058
699.019,598.706,60016
698.977,597.836,59972
698.934,596.967,59998
698.892,596.097,59962
698.849,595.228,59975
698.807,594.358,60006
698.764,593.488,59989
698.722,592.618,59984
698.679,591.748,59967
698.637,590.878,60045
698.595,590.007,59925
698.552,589.137,60014
698.51,588.266,60014
698.467,587.396,59880
698.425,586.525,59927
698.382,585.654,60001
698.34,584.783,59997
698.297,583.912,60030
698.255,583.041,59969
698.212,582.17,60037
698.17,581.299,59981
698.127,580.427,59926
698.085,579.556,60045
698.042,578.684,59977
698,577.812,60081
697.957,576.94,59953
697.915,576.068,59961
697.872,575.196,60040
697.83,574.324,60049
697.787,573.452,59981
697.745,572.579,60022
697.703,571.707,59993
697.66,570.834,60034
697.618,569.961,59976
697.575,569.088,60003
697.533,568.216,59901
697.49,567.342,60008
697.448,566.469,59995
697.405,565.596,59993
697.363,564.723,60015
697.32,563.849,59969
697.278,562.976,60000
697.235,562.102,60063
697.193,561.228,59954
697.15,560.354,59985
697.108,559.48,60056
697.065,558.606,59984
697.023,557.732,60018
696.98,556.858,59991
696.938,555.983,60052
696.895,555.109,59879
696.853,554.234,59957
696.811,553.359,59931
696.768,552.484,60007
696.726,551.609,60064
696.683,550.734,60003
696.641,549.859,60022
696.598,548.984,60005
696.556,548.108,60021
696.513,547.233,60012
696.471,546.357,59905
696.428,545.482,60071
696.386,544.606,59874
696.343,543.73,59958
696.301,542.854,60025
696.258,541.978,60006
696.216,541.101,59978
696.173,540.225,60043
696.131,539.349,60064
696.088,538.472,59999
696.046,537.595,59999
696.003,536.718,59963
695.961,535.842,59920
695.919,534.965,59978
695.876,534.087,59989
695.834,533.21,60007
695.791,532.333,59959
695.749,531.455,60066
695.706,530.578,59978
695.664,529.7,60037
695.621,528.823,60027
695.579,527.945,60035
695.536,527.067,59999
695.494,526.189,60026
695.451,525.31,59968
695.409,524.432,59997
695.366,523.554,60022
695.324,522.675,60031
695.281,521.797,59987
695.239,520.918,60044
695.196,520.039,60018
695.154,519.16,59984
695.111,518.281,60034
695.069,517.402,59949
695.027,516.523,59971
694.984,515.643,60011
694.942,514.764,59955
694.899,513.884,60006
694.857,513.005,59985
694.814,512.125,60040
694.772,511.245,59988
694.729,510.365,59931
694.687,509.485,60002
694.644,508.605,59991
694.602,507.724,59958
694.559,506.844,59926
694.517,505.963,59983
694.474,505.083,60019
694.432,504.202,60003
694.389,503.321,60010
694.347,502.44,59992
694.304,501.559,60006
694.262,500.678,59981
694.22,499.797,60055
694.177,498.915,59899
694.135,498.034,59988
694.092,497.152,60022
694.05,496.27,59947
694.007,495.388,60062
693.965,494.506,59863
693.922,493.624,59944
693.88,492.742,59980
693.837,491.86,59977
693.795,490.978,59995
693.752,490.095,59983
693.71,489.212,60043
693.667,488.33,59989
693.625,487.447,60011
693.582,486.564,59967
693.54,485.681,59978
693.497,484.798,59952
693.455,483.915,59907
693.412,483.031,60012
693.37,482.148,60031
693.328,481.264,60004
693.285,480.381,59943
693.243,479.497,59998
693.2,478.613,60022
693.158,477.729,60014
693.115,476.845,59955
693.073,475.961,60017
693.03,475.076,60017
692.988,474.192,59921
692.945,473.307,59985
692.903,472.423,59948
692.86,471.538,59970
692.818,470.653,59959
692.775,469.768,60023
692.733,468.883,59994
692.69,467.998,60014
692.648,467.112,59978
692.605,466.227,60015
692.563,465.342,59993
692.52,464.456,60020
692.478,463.57,60013
692.436,462.684,59964
692.393,461.798,60076
692.351,460.912,60033
692.308,460.026,59960
692.266,459.14,60082
692.223,458.253,60056
692.181,457.367,59891
692.138,456.48,59959
692.096,455.594,60022
692.053,454.707,59969
692.011,453.82,59936
691.968,452.933,59997
691.926,452.046,59938
691.883,451.158,59994
691.841,450.271,60014
691.798,449.384,59899
691.756,448.496,59914
691.713,447.608,59940
691.671,446.72,60043
691.628,445.833,59978
691.586,444.945,59975
691.544,444.056,60034
691.501,443.168,59937
691.459,442.28,59973
691.416,441.391,59944
691.374,440.503,60027
691.331,439.614,60000
691.289,438.725,60006
691.246,437.836,60032
691.204,436.947,59951
691.161,436.058,60023
691.119,435.169,59992
691.076,434.28,59955
691.034,433.39,60028
690.991,432.501,59980
690.949,431.611,60048
690.906,430.721,60037
690.864,429.831,59938
690.821,428.941,60002
690.779,428.051,60032
690.736,427.161,59996
690.694,426.271,59999
690.652,425.38,59954
690.609,424.49,60032
690.567,423.599,60006
690.524,422.708,59949
690.482,421.818,60000
690.439,420.927,60061
690.397,420.036,59992
690.354,419.144,60021
690.312,418.253,60018
690.269,417.362,60023
690.227,416.47,59948
690.184,415.578,59983
690.142,414.687,60032
690.099,413.795,59999
690.057,412.903,60002
690.014,412.011,60045
689.972,411.119,59941
689.929,410.226,60004
689.887,409.334,60014
689.844,408.441,59992
689.802,407.549,59994
689.76,406.656,59970
689.717,405.763,59999
689.675,404.87,60019
689.632,403.977,59986
689.59,403.084,59912
689.547,402.191,59975
689.505,401.297,60059
689.462,400.404,60040
689.42,399.51,59925
689.377,398.617,60098
689.335,397.723,60026
689.292,396.829,60020
689.25,395.935,60039
689.207,395.041,60046
689.165,394.146,59994
689.122,393.252,60064
689.08,392.357,60036
689.037,391.463,60074
688.995,390.568,60042
688.952,389.673,60042
688.91,388.778,59905
688.868,387.883,60041
688.825,386.988,60028
688.783,386.093,60024
688.74,385.197,60013
688.698,384.302,60001
688.655,383.406,59979
688.613,382.511,59858
688.57,381.615,60029
688.528,380.719,60048
688.485,379.823,59928
688.443,378.927,60073
688.4,378.03,60034
688.358,377.134,60045
688.315,376.238,59944
688.273,375.341,59989
688.23,374.444,59946
688.188,373.547,59966
688.145,372.651,59977
688.103,371.754,60067
688.06,370.856,59958
688.018,369.959,59987
687.976,369.062,59862
687.933,368.164,59937
702.12,661.884,59591
702.078,661.022,59990
702.035,660.16,60030
701.993,659.298,59964
701.95,658.436,59966
701.908,657.574,60052
701.865,656.712,59954
701.823,655.85,60007
701.78,654.987,59957
701.738,654.125,59980
701.695,653.262,59983
701.653,652.399,59982
701.61,651.537,60028
701.568,650.674,60023
701.525,649.811,59982
701.483,648.947,59956
701.44,648.084,59954
701.398,647.221,59920
701.355,646.357,59937
701.313,645.494,60048
701.271,644.63,60026
701.228,643.766,59964
701.186,642.902,59962
701.143,642.038,60035
701.101,641.174,60009
701.058,640.31,59937
701.016,639.446,59938
700.973,638.582,59964
700.931,637.717,59954
700.888,636.852,59947
700.846,635.988,59980
700.803,635.123,59961
700.761,634.258,59977
700.718,633.393,59919
700.676,632.528,59904
700.633,631.663,59989
700.591,630.797,60068
700.548,629.932,60027
700.506,629.066,60026
700.463,628.201,60031
700.421,627.335,60010
700.379,626.469,59963
700.336,625.603,59984
700.294,624.737,59897
700.251,623.871,60027
700.209,623.004,60005
700.166,622.138,59961
700.124,621.271,59964
700.081,620.405,60015
700.039,619.538,59931
699.996,618.671,59908
699.954,617.804,59920
699.911,616.937,59902
699.869,616.07,60008
699.826,615.203,59938
699.784,614.336,60054
699.741,613.468,60051
699.699,612.601,59940
699.656,611.733,59938
699.614,610.865,59956
699.571,609.997,60016
699.529,609.129,59943
699.487,608.261,59982
699.444,607.393,59983
699.402,606.525,59994
699.359,605.657,59967
699.317,604.788,60022
699.274,603.919,59990
699.232,603.051,60017
699.189,602.182,59873
699.147,601.313,59918
699.104,600.444,59972
699.062,599.575,59972
699.019,598.706,59984
698.977,597.836,60020
698.934,596.967,59923
698.892,596.097,60051
698.849,595.228,60010
698.807,594.358,60075
698.764,593.488,60041
698.722,592.618,59976
698.679,591.748,59987
698.637,590.878,59953
698.595,590.007,59985
698.552,589.137,59943
698.51,588.266,60064
698.467,587.396,59986
698.425,586.525,59988
698.382,585.654,59932
698.34,584.783,59973
698.297,583.912,60013
698.255,583.041,60007
698.212,582.17,59971
698.17,581.299,59968
698.127,580.427,59989
698.085,579.556,60016
698.042,578.684,60033
698,577.812,59967
697.957,576.94,59979
697.915,576.068,59934
697.872,575.196,60004
697.83,574.324,59989
697.787,573.452,60036
697.745,572.579,59923
697.703,571.707,59908
697.66,570.834,59931
697.618,569.961,59946
697.575,569.088,59958
697.533,568.216,59979
697.49,567.342,59963
697.448,566.469,59954
697.405,565.596,59988
697.363,564.723,59974
697.32,563.849,60024
697.278,562.976,60067
697.235,562.102,59960
697.193,561.228,59966
697.15,560.354,60046
697.108,559.48,60039
697.065,558.606,59970
697.023,557.732,59977
696.98,556.858,60000
696.938,555.983,59989
696.895,555.109,60026
696.853,554.234,59997
696.811,553.359,60066
696.768,552.484,59898
696.726,551.609,60040
696.683,550.734,59977
696.641,549.859,60007
696.598,548.984,59934
696.556,548.108,60022
696.513,547.233,59907
696.471,546.357,59919
696.428,545.482,59964
696.386,544.606,59995
696.343,543.73,59947
696.301,542.854,59979
696.258,541.978,60036
696.216,541.101,59974
696.173,540.225,60011
696.131,539.349,59963
696.088,538.472,59995
696.046,537.595,59924
696.003,536.718,59931
695.961,535.842,59988
695.919,534.965,60063
695.876,534.087,59992
695.834,533.21,59993
695.791,532.333,60016
695.749,531.455,59958
695.706,530.578,59878
695.664,529.7,60021
695.621,528.823,59972
695.579,527.945,59945
695.536,527.067,59970
695.494,526.189,59957
695.451,525.31,59952
695.409,524.432,59891
695.366,523.554,59981
695.324,522.675,59944
695.281,521.797,59977
695.239,520.918,59952
695.196,520.039,59994
695.154,519.16,59937
695.111,518.281,59964
695.069,517.402,59936
695.027,516.523,59922
694.984,515.643,59854
694.942,514.764,60029
694.899,513.884,59932
694.857,513.005,59951
694.814,512.125,59985
694.772,511.245,59938
694.729,510.365,59949
694.687,509.485,60001
694.644,508.605,60049
694.602,507.724,59960
694.559,506.844,59939
694.517,505.963,60045
694.474,505.083,59923
694.432,504.202,59914
694.389,503.321,59951
694.347,502.44,59980
694.304,501.559,60008
694.262,500.678,59928
694.22,499.797,60001
694.177,498.915,60002
694.135,498.034,59895
694.092,497.152,60013
694.05,496.27,60010
694.007,495.388,59922
693.965,494.506,60000
693.922,493.624,59959
693.88,492.742,60019
693.837,491.86,60011
693.795,490.978,59981
693.752,490.095,59951
693.71,489.212,59945
693.667,488.33,59945
693.625,487.447,59990
693.582,486.564,59964
693.54,485.681,59998
693.497,484.798,60012
693.455,483.915,59994
693.412,483.031,59992
693.37,482.148,59989
693.328,481.264,60008
693.285,480.381,60023
693.243,479.497,59981
693.2,478.613,59962
693.158,477.729,59929
693.115,476.845,59952
693.073,475.961,59962
693.03,475.076,59980
692.988,474.192,59973
692.945,473.307,59977
692.903,472.423,60017
692.86,471.538,60007
692.818,470.653,59904
692.775,469.768,59992
692.733,468.883,59973
692.69,467.998,59971
692.648,467.112,59915
692.605,466.227,59981
692.563,465.342,59972
692.52,464.456,60012
692.478,463.57,60049
692.436,462.684,59985
692.393,461.798,59945
692.351,460.912,59997
692.308,460.026,59970
692.266,459.14,59990
692.223,458.253,59910
692.181,457.367,59994
692.138,456.48,59939
692.096,455.594,59994
692.053,454.707,59948
692.011,453.82,60000
691.968,452.933,59951
691.926,452.046,60002
691.883,451.158,59944
691.841,450.271,59952
691.798,449.384,59981
691.756,448.496,60026
691.713,447.608,59981
691.671,446.72,59974
691.628,445.833,60018
691.586,444.945,60010
691.544,444.056,59957
691.501,443.168,60013
691.459,442.28,59938
691.416,441.391,59956
691.374,440.503,59930
691.331,439.614,59968
691.289,438.725,59972
691.246,437.836,59907
691.204,436.947,59980
691.161,436.058,59963
691.119,435.169,60047
691.076,434.28,59986
691.034,433.39,60046
690.991,432.501,59924
690.949,431.611,60023
690.906,430.721,60019
690.864,429.831,59915
690.821,428.941,59991
690.779,428.051,59972
690.736,427.161,59987
690.694,426.271,59959
690.652,425.38,60004
690.609,424.49,59947
690.567,423.599,59993
690.524,422.708,59924
690.482,421.818,59930
690.439,420.927,59904
690.397,420.036,59947
690.354,419.144,59993
690.312,418.253,60110
690.269,417.362,60030
690.227,416.47,59982
690.184,415.578,59895
690.142,414.687,59928
690.099,413.795,60043
690.057,412.903,59968
690.014,412.011,59934
689.972,411.119,60023
689.929,410.226,59922
689.887,409.334,59943
689.844,408.441,59926
689.802,407.549,59908
689.76,406.656,59943
689.717,405.763,59994
689.675,404.87,59961
689.632,403.977,59956
689.59,403.084,59994
689.547,402.191,60011
689.505,401.297,59939
689.462,400.404,59880
689.42,399.51,59927
689.377,398.617,60030
689.335,397.723,59916
689.292,396.829,59980
689.25,395.935,59966
689.207,395.041,59942
689.165,394.146,60029
689.122,393.252,60030
689.08,392.357,59958
689.037,391.463,59928
688.995,390.568,59959
688.952,389.673,59931
688.91,388.778,59987
688.868,387.883,59983
688.825,386.988,59966
688.783,386.093,59954
688.74,385.197,59952
688.698,384.302,60018
688.655,383.406,59957
688.613,382.511,59918
688.57,381.615,59926
688.528,380.719,59928
688.485,379.823,60050
688.443,378.927,60028
688.4,378.03,59965
688.358,377.134,59981
688.315,376.238,59944
688.273,375.341,59937
688.23,374.444,59996
688.188,373.547,59892
688.145,372.651,59998
688.103,371.754,60009
688.06,370.856,59933
688.018,369.959,60035
687.976,369.062,59952
687.933,368.164,59935
687.901,367.491,60006