File: tomke/20240809_Si_on_TiO2/20240809/raw_data/Si_50A_30sec_4acc_60mW_695nm.txt
Wavelength(nm), Raman shift(cm^-1), Intensity(counts)
702.12,661.884,359477
702.078,661.022,361907
702.035,660.16,360346
701.993,659.298,360167
701.95,658.436,359588
701.908,657.574,360639
701.865,656.712,359484
701.823,655.85,361127
701.78,654.987,359339
701.738,654.125,359415
701.695,653.262,359273
701.653,652.399,360859
701.61,651.537,358756
701.568,650.674,360612
701.525,649.811,359823
701.483,648.947,360159
701.44,648.084,359920
701.398,647.221,360116
701.355,646.357,360723
701.313,645.494,358678
701.271,644.63,361156
701.228,643.766,360348
701.186,642.902,359526
701.143,642.038,360542
701.101,641.174,359791
701.058,640.31,360859
701.016,639.446,360381
700.973,638.582,360160
700.931,637.717,360556
700.888,636.852,358289
700.846,635.988,360615
700.803,635.123,359758
700.761,634.258,360826
700.718,633.393,359523
700.676,632.528,359557
700.633,631.663,359430
700.591,630.797,359646
700.548,629.932,359152
700.506,629.066,358195
700.463,628.201,358791
700.421,627.335,358243
700.379,626.469,359341
700.336,625.603,357727
700.294,624.737,360359
700.251,623.871,358012
700.209,623.004,359096
700.166,622.138,357521
700.124,621.271,359488
700.081,620.405,357489
700.039,619.538,357053
699.996,618.671,359228
699.954,617.804,358489
699.911,616.937,357989
699.869,616.07,357137
699.826,615.203,358363
699.784,614.336,357374
699.741,613.468,356854
699.699,612.601,358851
699.656,611.733,356876
699.614,610.865,356083
699.571,609.997,357956
699.529,609.129,356911
699.487,608.261,357473
699.444,607.393,356224
699.402,606.525,358147
699.359,605.657,356914
699.317,604.788,355956
699.274,603.919,356999
699.232,603.051,355703
699.189,602.182,357541
699.147,601.313,355793
699.104,600.444,357036
699.062,599.575,356207
699.019,598.706,356187
698.977,597.836,356229
698.934,596.967,356118
698.892,596.097,357272
698.849,595.228,356265
698.807,594.358,355410
698.764,593.488,357394
698.722,592.618,356691
698.679,591.748,355509
698.637,590.878,355929
698.595,590.007,356399
698.552,589.137,355789
698.51,588.266,354165
698.467,587.396,355983
698.425,586.525,355709
698.382,585.654,356061
698.34,584.783,354811
698.297,583.912,356510
698.255,583.041,354711
698.212,582.17,355388
698.17,581.299,355902
698.127,580.427,354907
698.085,579.556,353739
698.042,578.684,354524
698,577.812,354906
697.957,576.94,354765
697.915,576.068,356260
697.872,575.196,354459
697.83,574.324,355605
697.787,573.452,356045
697.745,572.579,354306
697.703,571.707,353851
697.66,570.834,353837
697.618,569.961,355216
697.575,569.088,353911
697.533,568.216,353559
697.49,567.342,354593
697.448,566.469,353867
697.405,565.596,353807
697.363,564.723,353679
697.32,563.849,353063
697.278,562.976,353481
697.235,562.102,355104
697.193,561.228,354188
697.15,560.354,353158
697.108,559.48,353969
697.065,558.606,352710
697.023,557.732,352969
696.98,556.858,353661
696.938,555.983,353988
696.895,555.109,353944
696.853,554.234,352108
696.811,553.359,353269
696.768,552.484,352907
696.726,551.609,353204
696.683,550.734,353912
696.641,549.859,353448
696.598,548.984,351125
696.556,548.108,353013
696.513,547.233,353946
696.471,546.357,351991
696.428,545.482,353049
696.386,544.606,352937
696.343,543.73,352262
696.301,542.854,352000
696.258,541.978,352634
696.216,541.101,352644
696.173,540.225,351771
696.131,539.349,352713
696.088,538.472,350947
696.046,537.595,351964
696.003,536.718,352148
695.961,535.842,351906
695.919,534.965,350796
695.876,534.087,351599
695.834,533.21,351699
695.791,532.333,350799
695.749,531.455,351413
695.706,530.578,351656
695.664,529.7,350428
695.621,528.823,351362
695.579,527.945,350316
695.536,527.067,352858
695.494,526.189,351982
695.451,525.31,351250
695.409,524.432,351447
695.366,523.554,349786
695.324,522.675,349579
695.281,521.797,350305
695.239,520.918,350491
695.196,520.039,349385
695.154,519.16,350817
695.111,518.281,349518
695.069,517.402,350349
695.027,516.523,350322
694.984,515.643,350328
694.942,514.764,349568
694.899,513.884,350051
694.857,513.005,349795
694.814,512.125,349815
694.772,511.245,350782
694.729,510.365,350877
694.687,509.485,350212
694.644,508.605,350623
694.602,507.724,350699
694.559,506.844,350665
694.517,505.963,349445
694.474,505.083,350541
694.432,504.202,351458
694.389,503.321,349287
694.347,502.44,350745
694.304,501.559,351661
694.262,500.678,349050
694.22,499.797,350758
694.177,498.915,349757
694.135,498.034,349486
694.092,497.152,348289
694.05,496.27,348867
694.007,495.388,349104
693.965,494.506,349236
693.922,493.624,350011
693.88,492.742,348143
693.837,491.86,349391
693.795,490.978,348517
693.752,490.095,346806
693.71,489.212,348651
693.667,488.33,349097
693.625,487.447,347323
693.582,486.564,348637
693.54,485.681,348553
693.497,484.798,348403
693.455,483.915,348666
693.412,483.031,348967
693.37,482.148,347333
693.328,481.264,347315
693.285,480.381,348134
693.243,479.497,348559
693.2,478.613,347112
693.158,477.729,347394
693.115,476.845,347494
693.073,475.961,346891
693.03,475.076,348641
692.988,474.192,347862
692.945,473.307,347177
692.903,472.423,346934
692.86,471.538,347211
692.818,470.653,348118
692.775,469.768,346758
692.733,468.883,346477
692.69,467.998,346627
692.648,467.112,347372
692.605,466.227,345842
692.563,465.342,345245
692.52,464.456,346153
692.478,463.57,346797
692.436,462.684,346682
692.393,461.798,346174
692.351,460.912,346461
692.308,460.026,346797
692.266,459.14,345798
692.223,458.253,346136
692.181,457.367,345981
692.138,456.48,345640
692.096,455.594,345732
692.053,454.707,346814
692.011,453.82,345969
691.968,452.933,344873
691.926,452.046,345200
691.883,451.158,345886
691.841,450.271,345993
691.798,449.384,344583
691.756,448.496,344899
691.713,447.608,344488
691.671,446.72,344509
691.628,445.833,343599
691.586,444.945,344848
691.544,444.056,345580
691.501,443.168,344435
691.459,442.28,343993
691.416,441.391,344064
691.374,440.503,343870
691.331,439.614,344706
691.289,438.725,343883
691.246,437.836,344785
691.204,436.947,344285
691.161,436.058,344756
691.119,435.169,343459
691.076,434.28,343023
691.034,433.39,344262
690.991,432.501,343068
690.949,431.611,343798
690.906,430.721,343610
690.864,429.831,343419
690.821,428.941,342559
690.779,428.051,344257
690.736,427.161,343740
690.694,426.271,343530
690.652,425.38,342324
690.609,424.49,345442
690.567,423.599,342160
690.524,422.708,342649
690.482,421.818,343816
690.439,420.927,343395
690.397,420.036,343115
690.354,419.144,341341
690.312,418.253,342514
690.269,417.362,343310
690.227,416.47,342704
690.184,415.578,342534
690.142,414.687,341995
690.099,413.795,341679
690.057,412.903,342290
690.014,412.011,343212
689.972,411.119,342604
689.929,410.226,343056
689.887,409.334,341185
689.844,408.441,341405
689.802,407.549,342048
689.76,406.656,339986
689.717,405.763,341255
689.675,404.87,341556
689.632,403.977,341212
689.59,403.084,341319
689.547,402.191,341118
689.505,401.297,340861
689.462,400.404,340681
689.42,399.51,340278
689.377,398.617,341714
689.335,397.723,340427
689.292,396.829,341554
689.25,395.935,342831
689.207,395.041,340846
689.165,394.146,341214
689.122,393.252,341032
689.08,392.357,341173
689.037,391.463,340707
688.995,390.568,338047
688.952,389.673,340124
688.91,388.778,340948
688.868,387.883,339399
688.825,386.988,339445
688.783,386.093,338901
688.74,385.197,339530
688.698,384.302,339908
688.655,383.406,339204
688.613,382.511,338615
688.57,381.615,338831
688.528,380.719,338765
688.485,379.823,338029
688.443,378.927,335929
688.4,378.03,335724
688.358,377.134,336029
688.315,376.238,335867
688.273,375.341,335657
688.23,374.444,333760
688.188,373.547,333289
688.145,372.651,334406
688.103,371.754,332152
688.06,370.856,331487
688.018,369.959,330191
687.976,369.062,331366
687.933,368.164,329017
702.12,661.884,353595
702.078,661.022,354984
702.035,660.16,352899
701.993,659.298,353913
701.95,658.436,354456
701.908,657.574,354546
701.865,656.712,353803
701.823,655.85,354748
701.78,654.987,354622
701.738,654.125,354408
701.695,653.262,354649
701.653,652.399,355171
701.61,651.537,354615
701.568,650.674,354458
701.525,649.811,354245
701.483,648.947,354437
701.44,648.084,355030
701.398,647.221,353205
701.355,646.357,353802
701.313,645.494,353270
701.271,644.63,354028
701.228,643.766,354479
701.186,642.902,353200
701.143,642.038,353836
701.101,641.174,354383
701.058,640.31,354750
701.016,639.446,353104
700.973,638.582,354579
700.931,637.717,354194
700.888,636.852,352848
700.846,635.988,353088
700.803,635.123,355198
700.761,634.258,353218
700.718,633.393,353778
700.676,632.528,353510
700.633,631.663,353494
700.591,630.797,353530
700.548,629.932,353229
700.506,629.066,353421
700.463,628.201,353561
700.421,627.335,353292
700.379,626.469,353267
700.336,625.603,352834
700.294,624.737,352826
700.251,623.871,353415
700.209,623.004,351330
700.166,622.138,353435
700.124,621.271,352851
700.081,620.405,352683
700.039,619.538,353085
699.996,618.671,352412
699.954,617.804,352285
699.911,616.937,351876
699.869,616.07,352514
699.826,615.203,352525
699.784,614.336,352039
699.741,613.468,351122
699.699,612.601,353221
699.656,611.733,351620
699.614,610.865,351060
699.571,609.997,352393
699.529,609.129,351613
699.487,608.261,350789
699.444,607.393,351863
699.402,606.525,351444
699.359,605.657,350750
699.317,604.788,350251
699.274,603.919,351591
699.232,603.051,350861
699.189,602.182,350741
699.147,601.313,351235
699.104,600.444,350325
699.062,599.575,349055
699.019,598.706,350816
698.977,597.836,351731
698.934,596.967,350735
698.892,596.097,350613
698.849,595.228,351375
698.807,594.358,349849
698.764,593.488,350608
698.722,592.618,350568
698.679,591.748,350535
698.637,590.878,349933
698.595,590.007,349118
698.552,589.137,349399
698.51,588.266,350261
698.467,587.396,349955
698.425,586.525,350158
698.382,585.654,350089
698.34,584.783,349772
698.297,583.912,348635
698.255,583.041,349659
698.212,582.17,349779
698.17,581.299,350083
698.127,580.427,350028
698.085,579.556,347970
698.042,578.684,347466
698,577.812,349900
697.957,576.94,348321
697.915,576.068,348887
697.872,575.196,349766
697.83,574.324,349698
697.787,573.452,349149
697.745,572.579,349926
697.703,571.707,347433
697.66,570.834,349765
697.618,569.961,349429
697.575,569.088,348783
697.533,568.216,347933
697.49,567.342,349543
697.448,566.469,348440
697.405,565.596,348700
697.363,564.723,347581
697.32,563.849,348381
697.278,562.976,348008
697.235,562.102,348592
697.193,561.228,348327
697.15,560.354,347573
697.108,559.48,348131
697.065,558.606,348339
697.023,557.732,348397
696.98,556.858,348180
696.938,555.983,347489
696.895,555.109,347303
696.853,554.234,348676
696.811,553.359,347424
696.768,552.484,348078
696.726,551.609,347105
696.683,550.734,347878
696.641,549.859,346325
696.598,548.984,345282
696.556,548.108,346848
696.513,547.233,346422
696.471,546.357,346292
696.428,545.482,347449
696.386,544.606,348028
696.343,543.73,345938
696.301,542.854,346905
696.258,541.978,347223
696.216,541.101,345877
696.173,540.225,346105
696.131,539.349,346087
696.088,538.472,345464
696.046,537.595,346321
696.003,536.718,346360
695.961,535.842,344955
695.919,534.965,346108
695.876,534.087,346029
695.834,533.21,346394
695.791,532.333,345348
695.749,531.455,345892
695.706,530.578,346881
695.664,529.7,346969
695.621,528.823,345311
695.579,527.945,346530
695.536,527.067,346113
695.494,526.189,346109
695.451,525.31,345234
695.409,524.432,346148
695.366,523.554,345582
695.324,522.675,344737
695.281,521.797,344568
695.239,520.918,344747
695.196,520.039,345114
695.154,519.16,345218
695.111,518.281,345071
695.069,517.402,344877
695.027,516.523,344716
694.984,515.643,344444
694.942,514.764,344033
694.899,513.884,344791
694.857,513.005,344643
694.814,512.125,344428
694.772,511.245,344519
694.729,510.365,343149
694.687,509.485,344683
694.644,508.605,344627
694.602,507.724,344885
694.559,506.844,344583
694.517,505.963,344809
694.474,505.083,345316
694.432,504.202,344624
694.389,503.321,344708
694.347,502.44,344145
694.304,501.559,344416
694.262,500.678,344874
694.22,499.797,345337
694.177,498.915,343386
694.135,498.034,344287
694.092,497.152,343306
694.05,496.27,344008
694.007,495.388,343077
693.965,494.506,344515
693.922,493.624,343966
693.88,492.742,342331
693.837,491.86,342610
693.795,490.978,343196
693.752,490.095,343611
693.71,489.212,343459
693.667,488.33,344110
693.625,487.447,342770
693.582,486.564,343400
693.54,485.681,343743
693.497,484.798,342140
693.455,483.915,343975
693.412,483.031,342835
693.37,482.148,341893
693.328,481.264,342770
693.285,480.381,342129
693.243,479.497,341737
693.2,478.613,343629
693.158,477.729,343037
693.115,476.845,341249
693.073,475.961,341604
693.03,475.076,342229
692.988,474.192,341287
692.945,473.307,340354
692.903,472.423,340687
692.86,471.538,340826
692.818,470.653,340938
692.775,469.768,341067
692.733,468.883,341344
692.69,467.998,341361
692.648,467.112,341246
692.605,466.227,340427
692.563,465.342,340426
692.52,464.456,339773
692.478,463.57,341080
692.436,462.684,340680
692.393,461.798,340561
692.351,460.912,341034
692.308,460.026,342464
692.266,459.14,340396
692.223,458.253,341080
692.181,457.367,340775
692.138,456.48,341026
692.096,455.594,339691
692.053,454.707,339837
692.011,453.82,340246
691.968,452.933,338581
691.926,452.046,340554
691.883,451.158,340437
691.841,450.271,338499
691.798,449.384,339405
691.756,448.496,339145
691.713,447.608,339250
691.671,446.72,338323
691.628,445.833,338603
691.586,444.945,339570
691.544,444.056,339021
691.501,443.168,337799
691.459,442.28,339876
691.416,441.391,338991
691.374,440.503,339063
691.331,439.614,339654
691.289,438.725,340291
691.246,437.836,339641
691.204,436.947,338651
691.161,436.058,337170
691.119,435.169,338391
691.076,434.28,338636
691.034,433.39,338257
690.991,432.501,339822
690.949,431.611,337052
690.906,430.721,337932
690.864,429.831,338229
690.821,428.941,339081
690.779,428.051,338398
690.736,427.161,338853
690.694,426.271,336769
690.652,425.38,338150
690.609,424.49,337768
690.567,423.599,338131
690.524,422.708,336357
690.482,421.818,338959
690.439,420.927,338354
690.397,420.036,338124
690.354,419.144,337645
690.312,418.253,336738
690.269,417.362,337154
690.227,416.47,338452
690.184,415.578,336118
690.142,414.687,336148
690.099,413.795,336770
690.057,412.903,336518
690.014,412.011,335807
689.972,411.119,336407
689.929,410.226,336830
689.887,409.334,335455
689.844,408.441,336603
689.802,407.549,335474
689.76,406.656,336657
689.717,405.763,335299
689.675,404.87,335697
689.632,403.977,335573
689.59,403.084,335660
689.547,402.191,336185
689.505,401.297,335629
689.462,400.404,335366
689.42,399.51,335838
689.377,398.617,335378
689.335,397.723,335116
689.292,396.829,335599
689.25,395.935,335205
689.207,395.041,336093
689.165,394.146,335813
689.122,393.252,334386
689.08,392.357,335690
689.037,391.463,334155
688.995,390.568,334247
688.952,389.673,333722
688.91,388.778,334061
688.868,387.883,333840
688.825,386.988,334351
688.783,386.093,334135
688.74,385.197,334592
688.698,384.302,333670
688.655,383.406,333482
688.613,382.511,333368
688.57,381.615,333875
688.528,380.719,331603
688.485,379.823,333201
688.443,378.927,331445
688.4,378.03,332036
688.358,377.134,331050
688.315,376.238,331419
688.273,375.341,330217
688.23,374.444,329638
688.188,373.547,328305
688.145,372.651,327096
688.103,371.754,326548
688.06,370.856,326381
688.018,369.959,325346
687.976,369.062,325404
687.933,368.164,324396
702.12,661.884,498071
702.078,661.022,500990
702.035,660.16,497761
701.993,659.298,500286
701.95,658.436,499426
701.908,657.574,500033
701.865,656.712,501336
701.823,655.85,500035
701.78,654.987,501628
701.738,654.125,499275
701.695,653.262,501802
701.653,652.399,500373
701.61,651.537,499566
701.568,650.674,500622
701.525,649.811,501154
701.483,648.947,499914
701.44,648.084,499433
701.398,647.221,499590
701.355,646.357,499938
701.313,645.494,501594
701.271,644.63,500249
701.228,643.766,500407
701.186,642.902,499368
701.143,642.038,498954
701.101,641.174,500287
701.058,640.31,499091
701.016,639.446,500124
700.973,638.582,500373
700.931,637.717,499914
700.888,636.852,498956
700.846,635.988,498915
700.803,635.123,498664
700.761,634.258,499213
700.718,633.393,498133
700.676,632.528,499859
700.633,631.663,500655
700.591,630.797,498949
700.548,629.932,499037
700.506,629.066,499253
700.463,628.201,498006
700.421,627.335,499244
700.379,626.469,498561
700.336,625.603,497740
700.294,624.737,497711
700.251,623.871,499445
700.209,623.004,497291
700.166,622.138,497261
700.124,621.271,498898
700.081,620.405,497408
700.039,619.538,496207
699.996,618.671,498129
699.954,617.804,498501
699.911,616.937,496739
699.869,616.07,497684
699.826,615.203,498003
699.784,614.336,497456
699.741,613.468,495615
699.699,612.601,500720
699.656,611.733,495645
699.614,610.865,496794
699.571,609.997,498343
699.529,609.129,497065
699.487,608.261,496103
699.444,607.393,496043
699.402,606.525,494514
699.359,605.657,494568
699.317,604.788,495805
699.274,603.919,496623
699.232,603.051,495104
699.189,602.182,494857
699.147,601.313,496340
699.104,600.444,496404
699.062,599.575,494869
699.019,598.706,495890
698.977,597.836,495881
698.934,596.967,494022
698.892,596.097,494047
698.849,595.228,494870
698.807,594.358,495305
698.764,593.488,495432
698.722,592.618,495923
698.679,591.748,495596
698.637,590.878,494086
698.595,590.007,495917
698.552,589.137,494455
698.51,588.266,494216
698.467,587.396,495130
698.425,586.525,494372
698.382,585.654,494196
698.34,584.783,493196
698.297,583.912,493719
698.255,583.041,493899
698.212,582.17,493689
698.17,581.299,493907
698.127,580.427,492817
698.085,579.556,490676
698.042,578.684,492920
698,577.812,492679
697.957,576.94,494177
697.915,576.068,492385
697.872,575.196,494399
697.83,574.324,492436
697.787,573.452,492917
697.745,572.579,492913
697.703,571.707,494025
697.66,570.834,491606
697.618,569.961,491761
697.575,569.088,493502
697.533,568.216,491382
697.49,567.342,493032
697.448,566.469,493192
697.405,565.596,493118
697.363,564.723,491921
697.32,563.849,491756
697.278,562.976,491440
697.235,562.102,493089
697.193,561.228,491420
697.15,560.354,490510
697.108,559.48,491006
697.065,558.606,491251
697.023,557.732,491451
696.98,556.858,491664
696.938,555.983,491979
696.895,555.109,492649
696.853,554.234,490067
696.811,553.359,491409
696.768,552.484,491100
696.726,551.609,489379
696.683,550.734,490309
696.641,549.859,490877
696.598,548.984,488808
696.556,548.108,490795
696.513,547.233,491514
696.471,546.357,490971
696.428,545.482,489826
696.386,544.606,490849
696.343,543.73,489996
696.301,542.854,490443
696.258,541.978,490987
696.216,541.101,489325
696.173,540.225,488106
696.131,539.349,489912
696.088,538.472,489898
696.046,537.595,489287
696.003,536.718,489640
695.961,535.842,488290
695.919,534.965,488252
695.876,534.087,489417
695.834,533.21,489078
695.791,532.333,487922
695.749,531.455,487873
695.706,530.578,488631
695.664,529.7,488351
695.621,528.823,488189
695.579,527.945,488591
695.536,527.067,489147
695.494,526.189,489180
695.451,525.31,488891
695.409,524.432,487613
695.366,523.554,489248
695.324,522.675,488025
695.281,521.797,488642
695.239,520.918,488815
695.196,520.039,487630
695.154,519.16,488904
695.111,518.281,487166
695.069,517.402,487297
695.027,516.523,487140
694.984,515.643,487562
694.942,514.764,486945
694.899,513.884,487270
694.857,513.005,487244
694.814,512.125,485166
694.772,511.245,487095
694.729,510.365,485248
694.687,509.485,485083
694.644,508.605,486991
694.602,507.724,487191
694.559,506.844,488562
694.517,505.963,487705
694.474,505.083,487204
694.432,504.202,487125
694.389,503.321,486113
694.347,502.44,487316
694.304,501.559,487705
694.262,500.678,485208
694.22,499.797,487348
694.177,498.915,486719
694.135,498.034,486513
694.092,497.152,486396
694.05,496.27,486147
694.007,495.388,485429
693.965,494.506,487024
693.922,493.624,485512
693.88,492.742,485695
693.837,491.86,485057
693.795,490.978,485269
693.752,490.095,484509
693.71,489.212,484857
693.667,488.33,485398
693.625,487.447,483698
693.582,486.564,485439
693.54,485.681,484071
693.497,484.798,485606
693.455,483.915,485188
693.412,483.031,485136
693.37,482.148,486891
693.328,481.264,485008
693.285,480.381,482385
693.243,479.497,483400
693.2,478.613,484449
693.158,477.729,484861
693.115,476.845,483925
693.073,475.961,482151
693.03,475.076,482623
692.988,474.192,483811
692.945,473.307,483128
692.903,472.423,484186
692.86,471.538,483537
692.818,470.653,483354
692.775,469.768,482435
692.733,468.883,482206
692.69,467.998,482408
692.648,467.112,482032
692.605,466.227,484384
692.563,465.342,482856
692.52,464.456,482042
692.478,463.57,484193
692.436,462.684,482471
692.393,461.798,481549
692.351,460.912,482714
692.308,460.026,482771
692.266,459.14,482228
692.223,458.253,481365
692.181,457.367,480936
692.138,456.48,481422
692.096,455.594,482052
692.053,454.707,480412
692.011,453.82,481919
691.968,452.933,481889
691.926,452.046,480615
691.883,451.158,479619
691.841,450.271,480023
691.798,449.384,479464
691.756,448.496,480156
691.713,447.608,478465
691.671,446.72,479264
691.628,445.833,478790
691.586,444.945,479022
691.544,444.056,479753
691.501,443.168,478815
691.459,442.28,479194
691.416,441.391,480606
691.374,440.503,478802
691.331,439.614,480608
691.289,438.725,481450
691.246,437.836,478925
691.204,436.947,479408
691.161,436.058,478836
691.119,435.169,478341
691.076,434.28,477917
691.034,433.39,480255
690.991,432.501,479600
690.949,431.611,477645
690.906,430.721,478243
690.864,429.831,477758
690.821,428.941,477077
690.779,428.051,478086
690.736,427.161,478642
690.694,426.271,477862
690.652,425.38,478657
690.609,424.49,478010
690.567,423.599,478607
690.524,422.708,478417
690.482,421.818,478387
690.439,420.927,477021
690.397,420.036,475941
690.354,419.144,477519
690.312,418.253,477022
690.269,417.362,477964
690.227,416.47,477326
690.184,415.578,476926
690.142,414.687,477039
690.099,413.795,476523
690.057,412.903,476132
690.014,412.011,474992
689.972,411.119,477259
689.929,410.226,476263
689.887,409.334,476021
689.844,408.441,475837
689.802,407.549,476012
689.76,406.656,474831
689.717,405.763,476931
689.675,404.87,475331
689.632,403.977,475836
689.59,403.084,476079
689.547,402.191,475595
689.505,401.297,474557
689.462,400.404,474296
689.42,399.51,475583
689.377,398.617,475987
689.335,397.723,472809
689.292,396.829,474540
689.25,395.935,475949
689.207,395.041,475154
689.165,394.146,473837
689.122,393.252,475597
689.08,392.357,475330
689.037,391.463,474259
688.995,390.568,472451
688.952,389.673,472817
688.91,388.778,474772
688.868,387.883,473100
688.825,386.988,474556
688.783,386.093,472750
688.74,385.197,475182
688.698,384.302,472291
688.655,383.406,471896
688.613,382.511,472560
688.57,381.615,470255
688.528,380.719,472039
688.485,379.823,470846
688.443,378.927,467952
688.4,378.03,468111
688.358,377.134,467281
688.315,376.238,467155
688.273,375.341,466292
688.23,374.444,464781
688.188,373.547,463572
688.145,372.651,463128
688.103,371.754,462605
688.06,370.856,461786
688.018,369.959,460846
687.976,369.062,459946
687.933,368.164,458244
702.12,661.884,459002
702.078,661.022,461017
702.035,660.16,459500
701.993,659.298,459379
701.95,658.436,460551
701.908,657.574,461382
701.865,656.712,459825
701.823,655.85,461639
701.78,654.987,459713
701.738,654.125,459253
701.695,653.262,460610
701.653,652.399,462104
701.61,651.537,458408
701.568,650.674,460218
701.525,649.811,461162
701.483,648.947,461055
701.44,648.084,459511
701.398,647.221,460077
701.355,646.357,460509
701.313,645.494,461029
701.271,644.63,459314
701.228,643.766,461086
701.186,642.902,461203
701.143,642.038,461276
701.101,641.174,460253
701.058,640.31,461452
701.016,639.446,459724
700.973,638.582,459483
700.931,637.717,460889
700.888,636.852,458824
700.846,635.988,459437
700.803,635.123,459853
700.761,634.258,459641
700.718,633.393,457821
700.676,632.528,460523
700.633,631.663,459041
700.591,630.797,460198
700.548,629.932,461036
700.506,629.066,458556
700.463,628.201,457884
700.421,627.335,459811
700.379,626.469,458491
700.336,625.603,458349
700.294,624.737,458551
700.251,623.871,458302
700.209,623.004,458617
700.166,622.138,456294
700.124,621.271,458428
700.081,620.405,458743
700.039,619.538,457281
699.996,618.671,458168
699.954,617.804,457669
699.911,616.937,456874
699.869,616.07,457908
699.826,615.203,458702
699.784,614.336,457435
699.741,613.468,456382
699.699,612.601,458649
699.656,611.733,458238
699.614,610.865,456397
699.571,609.997,458018
699.529,609.129,456942
699.487,608.261,456754
699.444,607.393,457229
699.402,606.525,457416
699.359,605.657,455835
699.317,604.788,453456
699.274,603.919,455593
699.232,603.051,455468
699.189,602.182,455870
699.147,601.313,455280
699.104,600.444,455530
699.062,599.575,454348
699.019,598.706,456035
698.977,597.836,456291
698.934,596.967,456014
698.892,596.097,455860
698.849,595.228,456657
698.807,594.358,454649
698.764,593.488,455554
698.722,592.618,455621
698.679,591.748,454509
698.637,590.878,455706
698.595,590.007,455117
698.552,589.137,454816
698.51,588.266,454222
698.467,587.396,454802
698.425,586.525,453713
698.382,585.654,454131
698.34,584.783,454424
698.297,583.912,454427
698.255,583.041,453361
698.212,582.17,455804
698.17,581.299,454265
698.127,580.427,453181
698.085,579.556,453032
698.042,578.684,454305
698,577.812,452957
697.957,576.94,452895
697.915,576.068,454090
697.872,575.196,454380
697.83,574.324,456803
697.787,573.452,454932
697.745,572.579,454558
697.703,571.707,454788
697.66,570.834,453188
697.618,569.961,453673
697.575,569.088,452723
697.533,568.216,454355
697.49,567.342,453407
697.448,566.469,453237
697.405,565.596,453764
697.363,564.723,452005
697.32,563.849,454410
697.278,562.976,452493
697.235,562.102,452478
697.193,561.228,452568
697.15,560.354,452465
697.108,559.48,451588
697.065,558.606,452281
697.023,557.732,450970
696.98,556.858,452440
696.938,555.983,451293
696.895,555.109,451407
696.853,554.234,452338
696.811,553.359,452414
696.768,552.484,452436
696.726,551.609,450168
696.683,550.734,451619
696.641,549.859,451238
696.598,548.984,451000
696.556,548.108,451540
696.513,547.233,450978
696.471,546.357,450143
696.428,545.482,450095
696.386,544.606,452850
696.343,543.73,449839
696.301,542.854,450729
696.258,541.978,450129
696.216,541.101,449714
696.173,540.225,450139
696.131,539.349,450211
696.088,538.472,450767
696.046,537.595,450338
696.003,536.718,450059
695.961,535.842,450618
695.919,534.965,449902
695.876,534.087,448725
695.834,533.21,449003
695.791,532.333,447909
695.749,531.455,448838
695.706,530.578,451370
695.664,529.7,449491
695.621,528.823,449139
695.579,527.945,448675
695.536,527.067,448889
695.494,526.189,449093
695.451,525.31,448340
695.409,524.432,448392
695.366,523.554,448750
695.324,522.675,450125
695.281,521.797,449413
695.239,520.918,447885
695.196,520.039,448706
695.154,519.16,448401
695.111,518.281,449310
695.069,517.402,448464
695.027,516.523,449032
694.984,515.643,450170
694.942,514.764,447543
694.899,513.884,448738
694.857,513.005,446526
694.814,512.125,447856
694.772,511.245,448504
694.729,510.365,448141
694.687,509.485,449532
694.644,508.605,447496
694.602,507.724,448755
694.559,506.844,448214
694.517,505.963,446931
694.474,505.083,448966
694.432,504.202,447517
694.389,503.321,447667
694.347,502.44,447658
694.304,501.559,449444
694.262,500.678,446032
694.22,499.797,447903
694.177,498.915,448114
694.135,498.034,447168
694.092,497.152,446857
694.05,496.27,445686
694.007,495.388,446600
693.965,494.506,447029
693.922,493.624,445684
693.88,492.742,446558
693.837,491.86,444350
693.795,490.978,447268
693.752,490.095,446900
693.71,489.212,445419
693.667,488.33,446077
693.625,487.447,447523
693.582,486.564,445950
693.54,485.681,445978
693.497,484.798,445969
693.455,483.915,446913
693.412,483.031,446277
693.37,482.148,446261
693.328,481.264,443933
693.285,480.381,444043
693.243,479.497,445699
693.2,478.613,446124
693.158,477.729,444972
693.115,476.845,445692
693.073,475.961,444618
693.03,475.076,445312
692.988,474.192,443780
692.945,473.307,445426
692.903,472.423,445522
692.86,471.538,443736
692.818,470.653,445197
692.775,469.768,444383
692.733,468.883,443691
692.69,467.998,444637
692.648,467.112,445019
692.605,466.227,442443
692.563,465.342,443406
692.52,464.456,443472
692.478,463.57,444149
692.436,462.684,443965
692.393,461.798,443628
692.351,460.912,444141
692.308,460.026,444464
692.266,459.14,441977
692.223,458.253,444954
692.181,457.367,442161
692.138,456.48,443606
692.096,455.594,442137
692.053,454.707,441799
692.011,453.82,442188
691.968,452.933,442553
691.926,452.046,444108
691.883,451.158,441352
691.841,450.271,442253
691.798,449.384,442466
691.756,448.496,442715
691.713,447.608,440917
691.671,446.72,441654
691.628,445.833,441041
691.586,444.945,441176
691.544,444.056,441477
691.501,443.168,441357
691.459,442.28,439594
691.416,441.391,442498
691.374,440.503,440090
691.331,439.614,442431
691.289,438.725,441789
691.246,437.836,440772
691.204,436.947,441280
691.161,436.058,439927
691.119,435.169,440401
691.076,434.28,440829
691.034,433.39,441003
690.991,432.501,439468
690.949,431.611,440924
690.906,430.721,441882
690.864,429.831,441490
690.821,428.941,439363
690.779,428.051,438895
690.736,427.161,440345
690.694,426.271,439104
690.652,425.38,440245
690.609,424.49,441119
690.567,423.599,439638
690.524,422.708,438955
690.482,421.818,438902
690.439,420.927,439613
690.397,420.036,439044
690.354,419.144,438564
690.312,418.253,439229
690.269,417.362,438547
690.227,416.47,439449
690.184,415.578,438040
690.142,414.687,440857
690.099,413.795,438953
690.057,412.903,439374
690.014,412.011,438443
689.972,411.119,438647
689.929,410.226,437272
689.887,409.334,439417
689.844,408.441,438519
689.802,407.549,437709
689.76,406.656,437009
689.717,405.763,437384
689.675,404.87,437139
689.632,403.977,437267
689.59,403.084,437122
689.547,402.191,437703
689.505,401.297,436242
689.462,400.404,436348
689.42,399.51,436748
689.377,398.617,435771
689.335,397.723,437920
689.292,396.829,436910
689.25,395.935,436282
689.207,395.041,436986
689.165,394.146,436463
689.122,393.252,435836
689.08,392.357,436611
689.037,391.463,434818
688.995,390.568,435348
688.952,389.673,436066
688.91,388.778,436186
688.868,387.883,435563
688.825,386.988,434327
688.783,386.093,434922
688.74,385.197,433091
688.698,384.302,433842
688.655,383.406,434543
688.613,382.511,434553
688.57,381.615,432623
688.528,380.719,433301
688.485,379.823,433443
688.443,378.927,431133
688.4,378.03,430429
688.358,377.134,431079
688.315,376.238,429160
688.273,375.341,428693
688.23,374.444,427681
688.188,373.547,426726
688.145,372.651,427473
688.103,371.754,425496
688.06,370.856,423393
688.018,369.959,423230
687.976,369.062,421494
687.933,368.164,420755
687.901,367.491,421224