File: tomke/20240809_Si_on_TiO2/20240809/raw_data/Si_onTiO2_50mA_30mW_30sec_5acc_517nm.txt
Wavelength(nm), Raman shift(cm^-1), Intensity(counts)
525.364,-194.586,63234
525.301,-196.846,63549
525.239,-199.106,63668
525.177,-201.367,63759
525.114,-203.629,63768
525.052,-205.891,63756
524.99,-208.154,63613
524.927,-210.417,63837
524.865,-212.681,63762
524.802,-214.945,63830
524.74,-217.21,63817
524.678,-219.475,63872
524.615,-221.741,63674
524.553,-224.008,63812
524.491,-226.275,63833
524.428,-228.542,63891
524.366,-230.81,63963
524.304,-233.079,64040
524.241,-235.348,63941
524.179,-237.618,63930
524.116,-239.888,64013
524.054,-242.159,63852
523.992,-244.43,64105
523.929,-246.702,64024
523.867,-248.974,63889
523.805,-251.247,63928
523.742,-253.52,64080
523.68,-255.794,63963
523.617,-258.069,64277
523.555,-260.344,64304
523.493,-262.62,64319
523.43,-264.896,64749
523.368,-267.173,65002
523.306,-269.45,65795
523.243,-271.728,66152
523.181,-274.006,66733
523.119,-276.285,67490
523.056,-278.564,67901
522.994,-280.844,68658
522.931,-283.125,69205
522.869,-285.406,69208
522.807,-287.688,69868
522.744,-289.97,70212
522.682,-292.252,70258
522.62,-294.536,70228
522.557,-296.82,70082
522.495,-299.104,70253
522.432,-301.389,70142
522.37,-303.674,69932
522.308,-305.96,69726
522.245,-308.247,69821
522.183,-310.534,69339
522.121,-312.821,69908
522.058,-315.11,69370
521.996,-317.398,69531
521.933,-319.687,85812
521.871,-321.977,69307
521.809,-324.268,69157
521.746,-326.559,69214
521.684,-328.85,69073
521.622,-331.142,69014
521.559,-333.434,69158
521.497,-335.728,69124
521.435,-338.021,68856
521.372,-340.315,68958
521.31,-342.61,68830
521.247,-344.905,68817
521.185,-347.201,68823
521.123,-349.498,68889
521.06,-351.795,68693
520.998,-354.092,68597
520.936,-356.39,68547
520.873,-358.689,68581
520.811,-360.988,68422
520.748,-363.287,68506
520.686,-365.588,68427
520.624,-367.889,68346
520.561,-370.19,68251
520.499,-372.492,68307
520.437,-374.794,67737
520.374,-377.097,68054
520.312,-379.401,68052
520.249,-381.705,68108
520.187,-384.009,67718
520.125,-386.315,67961
520.062,-388.62,67726
520.0,-390.927,67712
519.938,-393.234,67773
519.875,-395.541,67672
519.813,-397.849,67551
519.751,-400.158,67545
519.688,-402.467,67682
519.626,-404.776,67249
519.563,-407.086,67413
519.501,-409.397,67442
519.439,-411.708,67517
519.376,-414.02,67299
519.314,-416.333,67283
519.252,-418.646,67156
519.189,-420.959,67231
519.127,-423.273,66986
519.064,-425.588,67132
519.002,-427.903,67001
518.94,-430.219,66814
518.877,-432.535,66529
518.815,-434.852,66746
518.753,-437.169,66689
518.69,-439.487,66589
518.628,-441.806,66611
518.565,-444.125,66536
518.503,-446.445,66265
518.441,-448.765,66335
518.378,-451.086,66264
518.316,-453.407,66185
518.254,-455.729,66043
518.191,-458.051,66332
518.129,-460.374,66222
518.067,-462.698,66292
518.004,-465.022,65991
517.942,-467.347,65996
517.879,-469.672,66040
517.817,-471.998,66119
517.755,-474.324,66215
517.692,-476.651,66138
517.63,-478.978,66517
517.568,-481.306,66386
517.505,-483.635,66606
517.443,-485.964,66614
517.38,-488.294,66995
517.318,-490.624,67488
517.256,-492.955,68093
517.193,-495.286,69300
517.131,-497.618,71113
517.069,-499.951,73098
517.006,-502.284,74183
516.944,-504.618,73799
516.881,-506.952,71812
516.819,-509.287,69611
516.757,-511.622,68388
516.694,-513.958,67428
516.632,-516.294,66831
516.57,-518.631,66400
516.507,-520.969,66163
516.445,-523.307,66084
516.383,-525.646,65770
516.32,-527.985,65675
516.258,-530.325,65544
516.195,-532.665,65677
516.133,-535.006,65531
516.071,-537.348,65381
516.008,-539.69,65432
515.946,-542.033,65277
515.884,-544.376,65227
515.821,-546.72,65346
515.759,-549.064,65295
515.696,-551.409,65231
515.634,-553.755,64834
515.572,-556.101,65309
515.509,-558.448,64976
515.447,-560.795,65086
515.385,-563.143,65014
515.322,-565.491,65141
515.26,-567.84,64857
515.198,-570.189,64843
515.135,-572.539,64962
515.073,-574.89,65048
515.01,-577.241,65085
514.948,-579.593,65026
514.886,-581.945,64699
514.823,-584.298,64996
514.761,-586.652,64975
514.699,-589.006,65011
514.636,-591.361,65186
514.574,-593.716,64974
514.511,-596.072,64969
514.449,-598.428,64987
514.387,-600.785,64948
514.324,-603.142,64850
514.262,-605.5,64998
514.2,-607.859,64848
514.137,-610.218,64960
514.075,-612.578,64740
514.012,-614.938,64828
513.95,-617.299,64801
513.888,-619.661,64798
513.825,-622.023,64792
513.763,-624.385,64792
513.701,-626.749,64828
513.638,-629.112,64835
513.576,-631.477,64681
513.514,-633.842,64556
513.451,-636.207,64668
513.389,-638.573,64652
513.326,-640.94,64587
513.264,-643.307,64485
513.202,-645.675,64725
513.139,-648.043,64590
513.077,-650.412,64474
513.015,-652.782,64473
512.952,-655.152,64480
512.89,-657.523,64508
512.827,-659.894,64462
512.765,-662.266,64407
512.703,-664.638,64454
512.64,-667.011,64457
512.578,-669.385,64385
512.516,-671.759,64477
512.453,-674.134,64347
512.391,-676.509,64324
512.328,-678.885,64280
512.266,-681.261,64124
512.204,-683.638,64311
512.141,-686.016,64358
512.079,-688.394,64313
512.017,-690.773,64116
511.954,-693.152,64218
511.892,-695.532,64162
511.83,-697.913,64249
511.767,-700.294,64229
511.705,-702.676,64307
511.642,-705.058,64208
511.58,-707.441,64064
511.518,-709.824,63969
511.455,-712.208,64074
511.393,-714.593,64046
511.331,-716.978,63997
511.268,-719.364,63761
511.206,-721.75,64135
511.143,-724.137,63836
511.081,-726.525,63994
511.019,-728.913,63970
510.956,-731.301,63979
510.894,-733.691,63870
510.832,-736.08,63923
510.769,-738.471,63825
510.707,-740.862,63959
510.644,-743.253,63956
510.582,-745.646,63886
510.52,-748.038,63816
510.457,-750.432,63777
510.395,-752.826,63817
510.333,-755.22,63876
510.27,-757.615,63666
510.208,-760.011,63808
510.146,-762.407,63636
510.083,-764.804,63848
510.021,-767.201,63690
509.958,-769.599,63515
509.896,-771.998,63752
509.834,-774.397,63623
509.771,-776.797,63645
509.709,-779.197,63521
509.647,-781.598,63521
509.584,-784,63694
509.522,-786.402,63486
509.459,-788.805,63571
509.397,-791.208,63614
509.335,-793.612,63466
509.272,-796.016,63570
509.21,-798.421,63456
509.148,-800.827,63451
509.085,-803.233,63486
509.023,-805.64,63293
508.96,-808.048,63461
508.898,-810.456,63529
508.836,-812.864,63378
508.773,-815.274,63314
508.711,-817.683,63404
525.364,-194.586,63194
525.301,-196.846,63627
525.239,-199.106,63700
525.177,-201.367,63589
525.114,-203.629,63860
525.052,-205.891,63676
524.99,-208.154,63654
524.927,-210.417,63764
524.865,-212.681,63797
524.802,-214.945,63688
524.74,-217.21,63779
524.678,-219.475,63867
524.615,-221.741,63852
524.553,-224.008,63912
524.491,-226.275,63891
524.428,-228.542,63917
524.366,-230.81,63927
524.304,-233.079,63848
524.241,-235.348,64002
524.179,-237.618,63860
524.116,-239.888,63970
524.054,-242.159,64078
523.992,-244.43,63886
523.929,-246.702,64029
523.867,-248.974,63991
523.805,-251.247,63943
523.742,-253.52,64028
523.68,-255.794,64149
523.617,-258.069,64041
523.555,-260.344,64411
523.493,-262.62,64478
523.43,-264.896,64890
523.368,-267.173,65155
523.306,-269.45,65596
523.243,-271.728,66202
523.181,-274.006,66707
523.119,-276.285,67426
523.056,-278.564,67984
522.994,-280.844,68666
522.931,-283.125,69210
522.869,-285.406,69537
522.807,-287.688,69827
522.744,-289.97,70071
522.682,-292.252,70009
522.62,-294.536,70234
522.557,-296.82,70205
522.495,-299.104,70062
522.432,-301.389,69884
522.37,-303.674,69872
522.308,-305.96,70159
522.245,-308.247,69660
522.183,-310.534,69661
522.121,-312.821,69877
522.058,-315.11,69668
521.996,-317.398,69456
521.933,-319.687,69653
521.871,-321.977,69474
521.809,-324.268,69477
521.746,-326.559,69186
521.684,-328.85,69127
521.622,-331.142,68919
521.559,-333.434,69062
521.497,-335.728,69199
521.435,-338.021,68819
521.372,-340.315,68897
521.31,-342.61,69011
521.247,-344.905,68934
521.185,-347.201,68837
521.123,-349.498,68631
521.06,-351.795,68684
520.998,-354.092,68604
520.936,-356.39,68703
520.873,-358.689,68503
520.811,-360.988,68402
520.748,-363.287,68259
520.686,-365.588,68398
520.624,-367.889,68217
520.561,-370.19,68195
520.499,-372.492,68354
520.437,-374.794,68222
520.374,-377.097,67885
520.312,-379.401,67829
520.249,-381.705,68015
520.187,-384.009,67938
520.125,-386.315,67961
520.062,-388.62,67845
520.0,-390.927,67771
519.938,-393.234,67720
519.875,-395.541,67669
519.813,-397.849,67653
519.751,-400.158,67500
519.688,-402.467,67447
519.626,-404.776,67508
519.563,-407.086,67358
519.501,-409.397,67464
519.439,-411.708,67285
519.376,-414.02,67219
519.314,-416.333,67321
519.252,-418.646,67186
519.189,-420.959,67107
519.127,-423.273,67181
519.064,-425.588,67016
519.002,-427.903,66894
518.94,-430.219,66986
518.877,-432.535,66850
518.815,-434.852,66669
518.753,-437.169,66700
518.69,-439.487,66593
518.628,-441.806,66457
518.565,-444.125,66363
518.503,-446.445,66347
518.441,-448.765,66337
518.378,-451.086,66221
518.316,-453.407,66354
518.254,-455.729,66296
518.191,-458.051,66166
518.129,-460.374,66282
518.067,-462.698,66342
518.004,-465.022,66174
517.942,-467.347,66061
517.879,-469.672,66308
517.817,-471.998,66143
517.755,-474.324,66156
517.692,-476.651,66156
517.63,-478.978,66264
517.568,-481.306,66461
517.505,-483.635,66581
517.443,-485.964,66662
517.38,-488.294,67114
517.318,-490.624,67591
517.256,-492.955,68073
517.193,-495.286,69340
517.131,-497.618,71121
517.069,-499.951,73136
517.006,-502.284,74413
516.944,-504.618,73565
516.881,-506.952,71853
516.819,-509.287,69733
516.757,-511.622,68884
516.694,-513.958,67361
516.632,-516.294,66671
516.57,-518.631,66458
516.507,-520.969,66257
516.445,-523.307,65877
516.383,-525.646,65888
516.32,-527.985,65815
516.258,-530.325,65652
516.195,-532.665,65580
516.133,-535.006,65413
516.071,-537.348,65451
516.008,-539.69,65358
515.946,-542.033,65142
515.884,-544.376,65440
515.821,-546.72,65297
515.759,-549.064,65315
515.696,-551.409,65175
515.634,-553.755,65356
515.572,-556.101,65260
515.509,-558.448,65061
515.447,-560.795,64979
515.385,-563.143,65135
515.322,-565.491,65053
515.26,-567.84,64992
515.198,-570.189,64971
515.135,-572.539,65086
515.073,-574.89,65322
515.01,-577.241,65009
514.948,-579.593,64990
514.886,-581.945,65095
514.823,-584.298,65143
514.761,-586.652,65208
514.699,-589.006,65071
514.636,-591.361,65048
514.574,-593.716,64928
514.511,-596.072,65000
514.449,-598.428,65124
514.387,-600.785,64975
514.324,-603.142,65104
514.262,-605.5,64938
514.2,-607.859,64812
514.137,-610.218,64794
514.075,-612.578,65021
514.012,-614.938,64855
513.95,-617.299,64809
513.888,-619.661,64823
513.825,-622.023,64764
513.763,-624.385,64770
513.701,-626.749,64745
513.638,-629.112,64570
513.576,-631.477,64684
513.514,-633.842,64683
513.451,-636.207,64767
513.389,-638.573,64751
513.326,-640.94,64789
513.264,-643.307,64757
513.202,-645.675,64447
513.139,-648.043,64591
513.077,-650.412,64682
513.015,-652.782,64541
512.952,-655.152,64615
512.89,-657.523,64614
512.827,-659.894,64472
512.765,-662.266,64522
512.703,-664.638,64581
512.64,-667.011,64535
512.578,-669.385,64339
512.516,-671.759,64465
512.453,-674.134,64383
512.391,-676.509,64281
512.328,-678.885,64377
512.266,-681.261,64406
512.204,-683.638,64130
512.141,-686.016,64101
512.079,-688.394,64153
512.017,-690.773,64234
511.954,-693.152,64073
511.892,-695.532,64067
511.83,-697.913,64219
511.767,-700.294,64219
511.705,-702.676,64214
511.642,-705.058,64099
511.58,-707.441,64008
511.518,-709.824,64096
511.455,-712.208,64113
511.393,-714.593,64168
511.331,-716.978,64088
511.268,-719.364,63995
511.206,-721.75,63958
511.143,-724.137,64107
511.081,-726.525,63958
511.019,-728.913,63752
510.956,-731.301,63992
510.894,-733.691,64027
510.832,-736.08,63943
510.769,-738.471,63998
510.707,-740.862,63823
510.644,-743.253,63724
510.582,-745.646,63950
510.52,-748.038,63941
510.457,-750.432,63950
510.395,-752.826,63742
510.333,-755.22,63804
510.27,-757.615,63735
510.208,-760.011,63770
510.146,-762.407,63736
510.083,-764.804,63661
510.021,-767.201,63634
509.958,-769.599,63645
509.896,-771.998,63596
509.834,-774.397,63744
509.771,-776.797,63655
509.709,-779.197,63637
509.647,-781.598,63561
509.584,-784,63510
509.522,-786.402,63493
509.459,-788.805,63508
509.397,-791.208,63490
509.335,-793.612,63587
509.272,-796.016,63568
509.21,-798.421,63564
509.148,-800.827,63524
509.085,-803.233,63466
509.023,-805.64,63555
508.96,-808.048,63419
508.898,-810.456,63461
508.836,-812.864,63342
508.773,-815.274,63435
508.711,-817.683,63540
525.364,-194.586,63281
525.301,-196.846,63614
525.239,-199.106,63631
525.177,-201.367,63527
525.114,-203.629,63677
525.052,-205.891,63653
524.99,-208.154,63753
524.927,-210.417,63812
524.865,-212.681,63775
524.802,-214.945,63764
524.74,-217.21,63807
524.678,-219.475,63827
524.615,-221.741,63790
524.553,-224.008,63736
524.491,-226.275,63932
524.428,-228.542,63778
524.366,-230.81,63877
524.304,-233.079,64033
524.241,-235.348,63817
524.179,-237.618,63995
524.116,-239.888,63977
524.054,-242.159,64000
523.992,-244.43,63746
523.929,-246.702,63983
523.867,-248.974,63971
523.805,-251.247,63941
523.742,-253.52,64011
523.68,-255.794,63939
523.617,-258.069,64182
523.555,-260.344,64336
523.493,-262.62,64423
523.43,-264.896,64676
523.368,-267.173,65158
523.306,-269.45,65553
523.243,-271.728,66092
523.181,-274.006,66649
523.119,-276.285,67386
523.056,-278.564,68135
522.994,-280.844,68405
522.931,-283.125,69239
522.869,-285.406,69431
522.807,-287.688,69789
522.744,-289.97,69731
522.682,-292.252,70056
522.62,-294.536,70066
522.557,-296.82,70311
522.495,-299.104,70069
522.432,-301.389,70149
522.37,-303.674,69881
522.308,-305.96,69856
522.245,-308.247,69750
522.183,-310.534,69636
522.121,-312.821,69727
522.058,-315.11,69685
521.996,-317.398,69446
521.933,-319.687,69482
521.871,-321.977,69417
521.809,-324.268,69277
521.746,-326.559,69461
521.684,-328.85,69177
521.622,-331.142,69110
521.559,-333.434,69089
521.497,-335.728,69256
521.435,-338.021,68894
521.372,-340.315,68927
521.31,-342.61,68932
521.247,-344.905,68795
521.185,-347.201,68886
521.123,-349.498,68720
521.06,-351.795,68934
520.998,-354.092,68411
520.936,-356.39,68460
520.873,-358.689,68643
520.811,-360.988,68622
520.748,-363.287,68524
520.686,-365.588,68123
520.624,-367.889,68274
520.561,-370.19,68221
520.499,-372.492,68067
520.437,-374.794,67900
520.374,-377.097,68118
520.312,-379.401,67970
520.249,-381.705,67815
520.187,-384.009,68102
520.125,-386.315,67929
520.062,-388.62,68062
520.0,-390.927,67548
519.938,-393.234,67699
519.875,-395.541,67554
519.813,-397.849,67674
519.751,-400.158,67665
519.688,-402.467,67388
519.626,-404.776,67572
519.563,-407.086,67432
519.501,-409.397,67291
519.439,-411.708,67233
519.376,-414.02,67390
519.314,-416.333,67396
519.252,-418.646,67066
519.189,-420.959,66968
519.127,-423.273,67130
519.064,-425.588,66671
519.002,-427.903,66768
518.94,-430.219,66757
518.877,-432.535,66521
518.815,-434.852,66655
518.753,-437.169,66519
518.69,-439.487,66468
518.628,-441.806,66668
518.565,-444.125,66595
518.503,-446.445,66329
518.441,-448.765,75280
518.378,-451.086,66178
518.316,-453.407,66397
518.254,-455.729,66328
518.191,-458.051,66079
518.129,-460.374,66376
518.067,-462.698,66006
518.004,-465.022,66200
517.942,-467.347,66061
517.879,-469.672,66017
517.817,-471.998,66195
517.755,-474.324,66226
517.692,-476.651,66148
517.63,-478.978,66159
517.568,-481.306,66278
517.505,-483.635,66532
517.443,-485.964,66766
517.38,-488.294,67073
517.318,-490.624,67537
517.256,-492.955,68099
517.193,-495.286,69357
517.131,-497.618,70834
517.069,-499.951,73177
517.006,-502.284,73994
516.944,-504.618,73438
516.881,-506.952,71943
516.819,-509.287,70251
516.757,-511.622,68485
516.694,-513.958,67475
516.632,-516.294,66753
516.57,-518.631,66188
516.507,-520.969,66044
516.445,-523.307,65875
516.383,-525.646,66057
516.32,-527.985,65845
516.258,-530.325,65546
516.195,-532.665,65462
516.133,-535.006,65406
516.071,-537.348,65476
516.008,-539.69,65259
515.946,-542.033,65090
515.884,-544.376,65198
515.821,-546.72,65092
515.759,-549.064,65220
515.696,-551.409,65257
515.634,-553.755,64954
515.572,-556.101,65225
515.509,-558.448,65204
515.447,-560.795,65094
515.385,-563.143,65170
515.322,-565.491,65141
515.26,-567.84,64980
515.198,-570.189,65148
515.135,-572.539,64985
515.073,-574.89,65045
515.01,-577.241,64950
514.948,-579.593,64845
514.886,-581.945,65221
514.823,-584.298,65118
514.761,-586.652,65093
514.699,-589.006,65004
514.636,-591.361,64919
514.574,-593.716,65078
514.511,-596.072,64861
514.449,-598.428,64883
514.387,-600.785,64885
514.324,-603.142,64867
514.262,-605.5,64999
514.2,-607.859,64766
514.137,-610.218,64847
514.075,-612.578,64692
514.012,-614.938,64751
513.95,-617.299,64823
513.888,-619.661,64531
513.825,-622.023,64839
513.763,-624.385,64876
513.701,-626.749,64822
513.638,-629.112,64735
513.576,-631.477,64988
513.514,-633.842,64730
513.451,-636.207,64580
513.389,-638.573,64575
513.326,-640.94,64648
513.264,-643.307,64515
513.202,-645.675,64483
513.139,-648.043,64428
513.077,-650.412,64712
513.015,-652.782,64406
512.952,-655.152,64450
512.89,-657.523,64601
512.827,-659.894,64434
512.765,-662.266,64446
512.703,-664.638,64489
512.64,-667.011,64551
512.578,-669.385,64353
512.516,-671.759,64312
512.453,-674.134,64221
512.391,-676.509,64379
512.328,-678.885,64299
512.266,-681.261,64242
512.204,-683.638,64297
512.141,-686.016,64289
512.079,-688.394,64318
512.017,-690.773,64229
511.954,-693.152,64214
511.892,-695.532,64209
511.83,-697.913,64169
511.767,-700.294,64223
511.705,-702.676,64088
511.642,-705.058,64134
511.58,-707.441,63989
511.518,-709.824,64057
511.455,-712.208,64084
511.393,-714.593,64152
511.331,-716.978,63971
511.268,-719.364,63868
511.206,-721.75,63941
511.143,-724.137,63971
511.081,-726.525,63844
511.019,-728.913,63898
510.956,-731.301,63877
510.894,-733.691,63909
510.832,-736.08,63877
510.769,-738.471,63837
510.707,-740.862,63813
510.644,-743.253,63826
510.582,-745.646,63863
510.52,-748.038,63878
510.457,-750.432,63974
510.395,-752.826,63750
510.333,-755.22,63622
510.27,-757.615,63706
510.208,-760.011,63749
510.146,-762.407,63791
510.083,-764.804,63731
510.021,-767.201,63588
509.958,-769.599,63931
509.896,-771.998,63735
509.834,-774.397,63512
509.771,-776.797,63419
509.709,-779.197,63387
509.647,-781.598,63712
509.584,-784,63554
509.522,-786.402,63585
509.459,-788.805,63610
509.397,-791.208,63698
509.335,-793.612,63516
509.272,-796.016,63404
509.21,-798.421,63367
509.148,-800.827,63462
509.085,-803.233,63379
509.023,-805.64,63389
508.96,-808.048,63539
508.898,-810.456,63414
508.836,-812.864,63361
508.773,-815.274,63510
508.711,-817.683,63350
525.364,-194.586,63254
525.301,-196.846,63641
525.239,-199.106,63664
525.177,-201.367,63567
525.114,-203.629,63545
525.052,-205.891,63535
524.99,-208.154,63491
524.927,-210.417,63704
524.865,-212.681,63625
524.802,-214.945,63652
524.74,-217.21,63818
524.678,-219.475,63755
524.615,-221.741,63880
524.553,-224.008,63795
524.491,-226.275,63731
524.428,-228.542,63839
524.366,-230.81,63817
524.304,-233.079,63873
524.241,-235.348,63909
524.179,-237.618,63946
524.116,-239.888,63900
524.054,-242.159,63878
523.992,-244.43,63793
523.929,-246.702,63769
523.867,-248.974,63924
523.805,-251.247,63992
523.742,-253.52,64006
523.68,-255.794,64015
523.617,-258.069,64345
523.555,-260.344,64187
523.493,-262.62,64439
523.43,-264.896,64762
523.368,-267.173,65122
523.306,-269.45,65634
523.243,-271.728,66194
523.181,-274.006,66887
523.119,-276.285,67253
523.056,-278.564,67857
522.994,-280.844,68442
522.931,-283.125,68965
522.869,-285.406,69371
522.807,-287.688,69522
522.744,-289.97,69783
522.682,-292.252,70216
522.62,-294.536,69898
522.557,-296.82,69981
522.495,-299.104,70069
522.432,-301.389,69634
522.37,-303.674,69442
522.308,-305.96,69736
522.245,-308.247,69322
522.183,-310.534,69452
522.121,-312.821,69397
522.058,-315.11,69335
521.996,-317.398,69304
521.933,-319.687,69174
521.871,-321.977,69141
521.809,-324.268,69205
521.746,-326.559,69005
521.684,-328.85,68968
521.622,-331.142,68865
521.559,-333.434,68931
521.497,-335.728,68793
521.435,-338.021,68623
521.372,-340.315,68694
521.31,-342.61,68752
521.247,-344.905,68679
521.185,-347.201,68481
521.123,-349.498,68442
521.06,-351.795,68591
520.998,-354.092,68588
520.936,-356.39,68130
520.873,-358.689,68296
520.811,-360.988,68387
520.748,-363.287,68282
520.686,-365.588,68302
520.624,-367.889,67969
520.561,-370.19,68107
520.499,-372.492,67787
520.437,-374.794,67880
520.374,-377.097,67815
520.312,-379.401,67695
520.249,-381.705,67773
520.187,-384.009,67666
520.125,-386.315,67842
520.062,-388.62,67625
520.0,-390.927,67704
519.938,-393.234,67616
519.875,-395.541,67528
519.813,-397.849,67269
519.751,-400.158,67587
519.688,-402.467,67501
519.626,-404.776,67337
519.563,-407.086,67419
519.501,-409.397,67225
519.439,-411.708,67330
519.376,-414.02,67292
519.314,-416.333,67117
519.252,-418.646,67202
519.189,-420.959,67059
519.127,-423.273,66679
519.064,-425.588,66774
519.002,-427.903,66785
518.94,-430.219,66747
518.877,-432.535,66605
518.815,-434.852,66472
518.753,-437.169,66588
518.69,-439.487,66455
518.628,-441.806,66331
518.565,-444.125,66355
518.503,-446.445,66188
518.441,-448.765,66145
518.378,-451.086,66171
518.316,-453.407,66137
518.254,-455.729,66072
518.191,-458.051,66058
518.129,-460.374,66152
518.067,-462.698,66116
518.004,-465.022,66198
517.942,-467.347,66182
517.879,-469.672,66048
517.817,-471.998,66251
517.755,-474.324,66016
517.692,-476.651,66145
517.63,-478.978,66115
517.568,-481.306,66193
517.505,-483.635,66232
517.443,-485.964,66762
517.38,-488.294,66933
517.318,-490.624,67411
517.256,-492.955,68271
517.193,-495.286,69291
517.131,-497.618,70975
517.069,-499.951,73110
517.006,-502.284,74226
516.944,-504.618,73375
516.881,-506.952,71708
516.819,-509.287,69882
516.757,-511.622,68117
516.694,-513.958,67221
516.632,-516.294,66554
516.57,-518.631,66177
516.507,-520.969,66128
516.445,-523.307,65844
516.383,-525.646,65694
516.32,-527.985,65435
516.258,-530.325,65641
516.195,-532.665,65301
516.133,-535.006,65235
516.071,-537.348,65363
516.008,-539.69,65239
515.946,-542.033,65141
515.884,-544.376,65154
515.821,-546.72,65150
515.759,-549.064,65199
515.696,-551.409,65174
515.634,-553.755,64982
515.572,-556.101,64978
515.509,-558.448,65221
515.447,-560.795,68986
515.385,-563.143,65105
515.322,-565.491,66024
515.26,-567.84,65121
515.198,-570.189,64987
515.135,-572.539,64879
515.073,-574.89,64789
515.01,-577.241,64919
514.948,-579.593,64828
514.886,-581.945,64982
514.823,-584.298,64848
514.761,-586.652,64903
514.699,-589.006,65104
514.636,-591.361,64911
514.574,-593.716,64991
514.511,-596.072,64842
514.449,-598.428,65003
514.387,-600.785,64950
514.324,-603.142,64845
514.262,-605.5,64828
514.2,-607.859,64864
514.137,-610.218,64635
514.075,-612.578,64652
514.012,-614.938,64767
513.95,-617.299,64562
513.888,-619.661,64806
513.825,-622.023,64620
513.763,-624.385,64806
513.701,-626.749,64693
513.638,-629.112,64633
513.576,-631.477,64576
513.514,-633.842,64514
513.451,-636.207,64662
513.389,-638.573,64516
513.326,-640.94,64497
513.264,-643.307,64383
513.202,-645.675,64523
513.139,-648.043,64501
513.077,-650.412,64466
513.015,-652.782,64567
512.952,-655.152,64388
512.89,-657.523,64443
512.827,-659.894,64319
512.765,-662.266,64372
512.703,-664.638,64545
512.64,-667.011,64344
512.578,-669.385,64459
512.516,-671.759,64338
512.453,-674.134,64185
512.391,-676.509,64200
512.328,-678.885,64188
512.266,-681.261,64258
512.204,-683.638,64111
512.141,-686.016,64170
512.079,-688.394,64083
512.017,-690.773,64001
511.954,-693.152,64117
511.892,-695.532,64007
511.83,-697.913,64129
511.767,-700.294,64121
511.705,-702.676,63980
511.642,-705.058,64103
511.58,-707.441,64033
511.518,-709.824,64110
511.455,-712.208,63769
511.393,-714.593,63933
511.331,-716.978,64025
511.268,-719.364,63954
511.206,-721.75,63831
511.143,-724.137,63845
511.081,-726.525,63826
511.019,-728.913,63843
510.956,-731.301,63713
510.894,-733.691,63695
510.832,-736.08,63776
510.769,-738.471,63930
510.707,-740.862,63792
510.644,-743.253,63840
510.582,-745.646,63778
510.52,-748.038,63696
510.457,-750.432,63748
510.395,-752.826,63804
510.333,-755.22,63704
510.27,-757.615,63637
510.208,-760.011,63604
510.146,-762.407,63703
510.083,-764.804,63519
510.021,-767.201,63589
509.958,-769.599,63482
509.896,-771.998,63633
509.834,-774.397,63666
509.771,-776.797,63500
509.709,-779.197,63477
509.647,-781.598,63403
509.584,-784,63461
509.522,-786.402,63368
509.459,-788.805,63496
509.397,-791.208,63375
509.335,-793.612,63406
509.272,-796.016,63507
509.21,-798.421,63351
509.148,-800.827,63217
509.085,-803.233,63496
509.023,-805.64,63378
508.96,-808.048,63475
508.898,-810.456,63315
508.836,-812.864,63224
508.773,-815.274,63240
508.711,-817.683,63379
525.364,-194.586,63113
525.301,-196.846,63552
525.239,-199.106,63555
525.177,-201.367,63513
525.114,-203.629,63674
525.052,-205.891,63615
524.99,-208.154,63713
524.927,-210.417,63443
524.865,-212.681,63707
524.802,-214.945,63720
524.74,-217.21,63707
524.678,-219.475,63771
524.615,-221.741,63818
524.553,-224.008,63784
524.491,-226.275,63649
524.428,-228.542,63883
524.366,-230.81,63792
524.304,-233.079,63734
524.241,-235.348,64065
524.179,-237.618,63814
524.116,-239.888,63845
524.054,-242.159,63713
523.992,-244.43,63821
523.929,-246.702,63910
523.867,-248.974,63731
523.805,-251.247,63848
523.742,-253.52,63867
523.68,-255.794,64188
523.617,-258.069,64027
523.555,-260.344,64265
523.493,-262.62,64383
523.43,-264.896,64692
523.368,-267.173,65172
523.306,-269.45,65323
523.243,-271.728,65903
523.181,-274.006,66608
523.119,-276.285,67546
523.056,-278.564,67904
522.994,-280.844,68280
522.931,-283.125,68737
522.869,-285.406,69095
522.807,-287.688,69476
522.744,-289.97,69644
522.682,-292.252,69761
522.62,-294.536,69935
522.557,-296.82,69839
522.495,-299.104,69715
522.432,-301.389,69693
522.37,-303.674,69537
522.308,-305.96,69574
522.245,-308.247,69399
522.183,-310.534,69203
522.121,-312.821,69418
522.058,-315.11,69291
521.996,-317.398,69354
521.933,-319.687,69064
521.871,-321.977,69098
521.809,-324.268,68882
521.746,-326.559,68980
521.684,-328.85,68846
521.622,-331.142,68876
521.559,-333.434,68958
521.497,-335.728,68817
521.435,-338.021,68809
521.372,-340.315,68484
521.31,-342.61,68673
521.247,-344.905,68507
521.185,-347.201,68596
521.123,-349.498,68487
521.06,-351.795,68411
520.998,-354.092,68322
520.936,-356.39,68499
520.873,-358.689,68272
520.811,-360.988,68283
520.748,-363.287,68183
520.686,-365.588,68275
520.624,-367.889,67840
520.561,-370.19,67948
520.499,-372.492,67947
520.437,-374.794,67612
520.374,-377.097,67757
520.312,-379.401,67675
520.249,-381.705,67479
520.187,-384.009,67770
520.125,-386.315,67688
520.062,-388.62,67388
520.0,-390.927,67673
519.938,-393.234,67512
519.875,-395.541,67559
519.813,-397.849,67300
519.751,-400.158,67232
519.688,-402.467,67110
519.626,-404.776,67350
519.563,-407.086,67047
519.501,-409.397,67087
519.439,-411.708,67111
519.376,-414.02,67270
519.314,-416.333,66990
519.252,-418.646,67303
519.189,-420.959,66994
519.127,-423.273,66874
519.064,-425.588,66779
519.002,-427.903,66808
518.94,-430.219,66628
518.877,-432.535,66447
518.815,-434.852,66487
518.753,-437.169,66519
518.69,-439.487,66338
518.628,-441.806,66217
518.565,-444.125,66129
518.503,-446.445,66066
518.441,-448.765,66019
518.378,-451.086,66084
518.316,-453.407,66275
518.254,-455.729,65840
518.191,-458.051,66014
518.129,-460.374,65944
518.067,-462.698,66083
518.004,-465.022,66096
517.942,-467.347,65963
517.879,-469.672,65877
517.817,-471.998,65971
517.755,-474.324,66157
517.692,-476.651,66171
517.63,-478.978,66055
517.568,-481.306,66230
517.505,-483.635,66419
517.443,-485.964,66529
517.38,-488.294,66742
517.318,-490.624,67471
517.256,-492.955,67815
517.193,-495.286,69182
517.131,-497.618,70695
517.069,-499.951,72929
517.006,-502.284,74103
516.944,-504.618,73722
516.881,-506.952,71790
516.819,-509.287,69804
516.757,-511.622,68186
516.694,-513.958,67210
516.632,-516.294,66589
516.57,-518.631,66270
516.507,-520.969,66007
516.445,-523.307,65754
516.383,-525.646,65817
516.32,-527.985,65453
516.258,-530.325,65365
516.195,-532.665,65279
516.133,-535.006,65154
516.071,-537.348,65252
516.008,-539.69,65088
515.946,-542.033,65360
515.884,-544.376,65300
515.821,-546.72,65078
515.759,-549.064,65037
515.696,-551.409,65088
515.634,-553.755,64874
515.572,-556.101,64925
515.509,-558.448,65070
515.447,-560.795,64762
515.385,-563.143,64920
515.322,-565.491,64891
515.26,-567.84,64971
515.198,-570.189,65000
515.135,-572.539,64832
515.073,-574.89,64893
515.01,-577.241,64791
514.948,-579.593,65047
514.886,-581.945,64737
514.823,-584.298,64911
514.761,-586.652,64844
514.699,-589.006,65021
514.636,-591.361,64853
514.574,-593.716,64772
514.511,-596.072,64826
514.449,-598.428,64611
514.387,-600.785,64851
514.324,-603.142,64820
514.262,-605.5,64656
514.2,-607.859,64696
514.137,-610.218,64669
514.075,-612.578,64598
514.012,-614.938,65008
513.95,-617.299,64786
513.888,-619.661,64568
513.825,-622.023,64578
513.763,-624.385,64654
513.701,-626.749,64513
513.638,-629.112,64435
513.576,-631.477,64702
513.514,-633.842,64528
513.451,-636.207,64525
513.389,-638.573,64477
513.326,-640.94,64439
513.264,-643.307,64438
513.202,-645.675,64495
513.139,-648.043,64436
513.077,-650.412,64329
513.015,-652.782,64401
512.952,-655.152,64353
512.89,-657.523,64339
512.827,-659.894,64341
512.765,-662.266,64415
512.703,-664.638,64180
512.64,-667.011,64206
512.578,-669.385,63969
512.516,-671.759,64187
512.453,-674.134,64313
512.391,-676.509,64129
512.328,-678.885,64005
512.266,-681.261,64138
512.204,-683.638,64176
512.141,-686.016,63950
512.079,-688.394,64011
512.017,-690.773,64074
511.954,-693.152,64113
511.892,-695.532,64094
511.83,-697.913,64027
511.767,-700.294,63948
511.705,-702.676,63944
511.642,-705.058,64006
511.58,-707.441,64005
511.518,-709.824,63938
511.455,-712.208,63814
511.393,-714.593,64114
511.331,-716.978,63878
511.268,-719.364,63912
511.206,-721.75,63897
511.143,-724.137,63900
511.081,-726.525,63934
511.019,-728.913,63802
510.956,-731.301,63741
510.894,-733.691,63852
510.832,-736.08,63763
510.769,-738.471,63847
510.707,-740.862,63723
510.644,-743.253,63745
510.582,-745.646,63675
510.52,-748.038,63764
510.457,-750.432,63693
510.395,-752.826,63704
510.333,-755.22,63688
510.27,-757.615,63687
510.208,-760.011,63697
510.146,-762.407,63701
510.083,-764.804,63703
510.021,-767.201,63629
509.958,-769.599,63618
509.896,-771.998,63504
509.834,-774.397,63357
509.771,-776.797,63435
509.709,-779.197,63504
509.647,-781.598,63376
509.584,-784,63546
509.522,-786.402,63508
509.459,-788.805,63320
509.397,-791.208,63397
509.335,-793.612,63407
509.272,-796.016,63242
509.21,-798.421,63411
509.148,-800.827,63318
509.085,-803.233,63334
509.023,-805.64,63252
508.96,-808.048,63375
508.898,-810.456,63417
508.836,-812.864,63285
508.773,-815.274,63236
508.711,-817.683,63141
508.661,-819.612,63199