File: tomke/20240809_Si_on_TiO2/20240809/raw_data/Si_onTiO2_100mA_30mW_30sec_5acc_517nm_bg.txt
Wavelength(nm), Raman shift(cm^-1), Intensity(counts)
525.364,-194.586,78671
525.301,-196.846,78968
525.239,-199.106,79280
525.177,-201.367,79717
525.114,-203.629,79571
525.052,-205.891,79488
524.99,-208.154,79741
524.927,-210.417,79531
524.865,-212.681,79739
524.802,-214.945,79567
524.74,-217.21,79854
524.678,-219.475,79770
524.615,-221.741,80365
524.553,-224.008,80243
524.491,-226.275,80121
524.428,-228.542,80388
524.366,-230.81,80019
524.304,-233.079,80511
524.241,-235.348,80628
524.179,-237.618,80458
524.116,-239.888,80432
524.054,-242.159,80652
523.992,-244.43,81031
523.929,-246.702,80947
523.867,-248.974,81749
523.805,-251.247,82061
523.742,-253.52,82311
523.68,-255.794,82691
523.617,-258.069,83733
523.555,-260.344,85336
523.493,-262.62,87695
523.43,-264.896,90636
523.368,-267.173,95092
523.306,-269.45,101106
523.243,-271.728,108511
523.181,-274.006,116484
523.119,-276.285,124727
523.056,-278.564,132589
522.994,-280.844,139731
522.931,-283.125,145160
522.869,-285.406,149249
522.807,-287.688,152480
522.744,-289.97,153993
522.682,-292.252,156138
522.62,-294.536,156569
522.557,-296.82,157261
522.495,-299.104,156783
522.432,-301.389,157582
522.37,-303.674,157806
522.308,-305.96,157567
522.245,-308.247,156820
522.183,-310.534,157040
522.121,-312.821,157534
522.058,-315.11,156723
521.996,-317.398,156035
521.933,-319.687,155825
521.871,-321.977,155598
521.809,-324.268,155127
521.746,-326.559,154434
521.684,-328.85,154849
521.622,-331.142,154377
521.559,-333.434,154505
521.497,-335.728,153579
521.435,-338.021,152785
521.372,-340.315,153918
521.31,-342.61,153817
521.247,-344.905,152238
521.185,-347.201,153499
521.123,-349.498,152550
521.06,-351.795,152596
520.998,-354.092,151621
520.936,-356.39,151733
520.873,-358.689,150879
520.811,-360.988,150597
520.748,-363.287,149986
520.686,-365.588,149460
520.624,-367.889,149494
520.561,-370.19,148998
520.499,-372.492,148671
520.437,-374.794,147947
520.374,-377.097,147636
520.312,-379.401,147289
520.249,-381.705,146965
520.187,-384.009,147252
520.125,-386.315,146539
520.062,-388.62,145831
520.0,-390.927,146304
519.938,-393.234,145176
519.875,-395.541,146210
519.813,-397.849,145948
519.751,-400.158,145416
519.688,-402.467,145421
519.626,-404.776,144277
519.563,-407.086,144348
519.501,-409.397,143393
519.439,-411.708,143699
519.376,-414.02,142958
519.314,-416.333,142625
519.252,-418.646,142734
519.189,-420.959,141719
519.127,-423.273,141548
519.064,-425.588,140635
519.002,-427.903,140617
518.94,-430.219,139320
518.877,-432.535,138735
518.815,-434.852,139094
518.753,-437.169,138809
518.69,-439.487,138141
518.628,-441.806,137029
518.565,-444.125,137919
518.503,-446.445,136745
518.441,-448.765,136898
518.378,-451.086,136579
518.316,-453.407,136031
518.254,-455.729,136523
518.191,-458.051,135715
518.129,-460.374,136383
518.067,-462.698,135816
518.004,-465.022,135197
517.942,-467.347,134802
517.879,-469.672,134772
517.817,-471.998,134460
517.755,-474.324,134284
517.692,-476.651,133882
517.63,-478.978,133307
517.568,-481.306,133432
517.505,-483.635,133591
517.443,-485.964,133004
517.38,-488.294,132684
517.318,-490.624,132298
517.256,-492.955,132649
517.193,-495.286,132029
517.131,-497.618,131737
517.069,-499.951,132206
517.006,-502.284,132118
516.944,-504.618,131324
516.881,-506.952,131480
516.819,-509.287,131433
516.757,-511.622,131359
516.694,-513.958,131226
516.632,-516.294,131204
516.57,-518.631,130784
516.507,-520.969,130991
516.445,-523.307,130658
516.383,-525.646,130751
516.32,-527.985,130319
516.258,-530.325,130034
516.195,-532.665,130131
516.133,-535.006,129815
516.071,-537.348,129626
516.008,-539.69,129844
515.946,-542.033,129677
515.884,-544.376,129460
515.821,-546.72,129249
515.759,-549.064,128863
515.696,-551.409,128853
515.634,-553.755,128246
515.572,-556.101,128638
515.509,-558.448,128415
515.447,-560.795,128443
515.385,-563.143,128589
515.322,-565.491,127917
515.26,-567.84,127685
515.198,-570.189,127726
515.135,-572.539,127362
515.073,-574.89,127175
515.01,-577.241,127933
514.948,-579.593,127249
514.886,-581.945,127326
514.823,-584.298,126192
514.761,-586.652,126435
514.699,-589.006,126937
514.636,-591.361,126138
514.574,-593.716,126129
514.511,-596.072,125963
514.449,-598.428,126735
514.387,-600.785,125832
514.324,-603.142,125638
514.262,-605.5,125192
514.2,-607.859,125116
514.137,-610.218,125007
514.075,-612.578,124851
514.012,-614.938,124711
513.95,-617.299,124337
513.888,-619.661,124365
513.825,-622.023,124231
513.763,-624.385,124049
513.701,-626.749,123215
513.638,-629.112,123501
513.576,-631.477,122576
513.514,-633.842,122915
513.451,-636.207,122685
513.389,-638.573,122332
513.326,-640.94,122219
513.264,-643.307,121716
513.202,-645.675,121872
513.139,-648.043,121509
513.077,-650.412,121112
513.015,-652.782,121165
512.952,-655.152,121342
512.89,-657.523,121002
512.827,-659.894,120503
512.765,-662.266,120188
512.703,-664.638,120182
512.64,-667.011,119879
512.578,-669.385,119497
512.516,-671.759,119290
512.453,-674.134,119082
512.391,-676.509,118730
512.328,-678.885,118532
512.266,-681.261,118541
512.204,-683.638,118616
512.141,-686.016,117619
512.079,-688.394,118001
512.017,-690.773,117232
511.954,-693.152,117103
511.892,-695.532,117359
511.83,-697.913,116843
511.767,-700.294,116396
511.705,-702.676,116242
511.642,-705.058,115771
511.58,-707.441,115629
511.518,-709.824,115299
511.455,-712.208,115073
511.393,-714.593,114968
511.331,-716.978,114818
511.268,-719.364,114424
511.206,-721.75,113853
511.143,-724.137,114122
511.081,-726.525,113812
511.019,-728.913,114133
510.956,-731.301,113679
510.894,-733.691,113735
510.832,-736.08,113147
510.769,-738.471,112915
510.707,-740.862,112718
510.644,-743.253,112448
510.582,-745.646,112501
510.52,-748.038,112138
510.457,-750.432,111899
510.395,-752.826,110758
510.333,-755.22,110886
510.27,-757.615,110914
510.208,-760.011,110937
510.146,-762.407,110418
510.083,-764.804,110184
510.021,-767.201,109960
509.958,-769.599,109360
509.896,-771.998,109351
509.834,-774.397,108561
509.771,-776.797,108796
509.709,-779.197,108459
509.647,-781.598,108016
509.584,-784,108005
509.522,-786.402,107613
509.459,-788.805,106995
509.397,-791.208,107213
509.335,-793.612,107224
509.272,-796.016,106895
509.21,-798.421,106750
509.148,-800.827,106075
509.085,-803.233,106515
509.023,-805.64,106069
508.96,-808.048,105881
508.898,-810.456,105750
508.836,-812.864,105481
508.773,-815.274,105478
508.711,-817.683,105312
525.364,-194.586,79192
525.301,-196.846,79496
525.239,-199.106,79676
525.177,-201.367,79879
525.114,-203.629,79778
525.052,-205.891,79980
524.99,-208.154,79968
524.927,-210.417,80427
524.865,-212.681,80524
524.802,-214.945,80268
524.74,-217.21,80312
524.678,-219.475,80860
524.615,-221.741,80239
524.553,-224.008,80998
524.491,-226.275,80515
524.428,-228.542,80418
524.366,-230.81,80769
524.304,-233.079,80657
524.241,-235.348,81148
524.179,-237.618,81408
524.116,-239.888,81386
524.054,-242.159,81220
523.992,-244.43,81677
523.929,-246.702,81226
523.867,-248.974,82014
523.805,-251.247,82296
523.742,-253.52,82867
523.68,-255.794,83662
523.617,-258.069,84507
523.555,-260.344,86285
523.493,-262.62,88435
523.43,-264.896,91557
523.368,-267.173,96198
523.306,-269.45,102299
523.243,-271.728,109921
523.181,-274.006,118637
523.119,-276.285,127373
523.056,-278.564,136679
522.994,-280.844,143033
522.931,-283.125,148347
522.869,-285.406,152993
522.807,-287.688,155815
522.744,-289.97,157815
522.682,-292.252,159423
522.62,-294.536,160407
522.557,-296.82,160386
522.495,-299.104,161327
522.432,-301.389,161295
522.37,-303.674,161474
522.308,-305.96,160818
522.245,-308.247,161465
522.183,-310.534,161046
522.121,-312.821,161033
522.058,-315.11,160608
521.996,-317.398,159615
521.933,-319.687,160118
521.871,-321.977,159205
521.809,-324.268,158338
521.746,-326.559,159098
521.684,-328.85,158159
521.622,-331.142,158092
521.559,-333.434,158608
521.497,-335.728,156787
521.435,-338.021,157532
521.372,-340.315,157358
521.31,-342.61,157068
521.247,-344.905,156852
521.185,-347.201,157058
521.123,-349.498,156948
521.06,-351.795,156470
520.998,-354.092,155776
520.936,-356.39,154703
520.873,-358.689,154899
520.811,-360.988,154255
520.748,-363.287,153511
520.686,-365.588,153659
520.624,-367.889,153314
520.561,-370.19,151952
520.499,-372.492,152315
520.437,-374.794,151712
520.374,-377.097,151785
520.312,-379.401,150673
520.249,-381.705,150625
520.187,-384.009,150541
520.125,-386.315,150326
520.062,-388.62,150458
520.0,-390.927,150174
519.938,-393.234,149574
519.875,-395.541,150159
519.813,-397.849,149126
519.751,-400.158,148949
519.688,-402.467,148931
519.626,-404.776,148084
519.563,-407.086,147860
519.501,-409.397,147343
519.439,-411.708,147261
519.376,-414.02,146162
519.314,-416.333,146234
519.252,-418.646,145462
519.189,-420.959,144805
519.127,-423.273,143653
519.064,-425.588,144044
519.002,-427.903,144568
518.94,-430.219,142916
518.877,-432.535,141793
518.815,-434.852,141991
518.753,-437.169,142242
518.69,-439.487,140963
518.628,-441.806,141134
518.565,-444.125,140304
518.503,-446.445,140617
518.441,-448.765,140524
518.378,-451.086,140227
518.316,-453.407,139705
518.254,-455.729,139713
518.191,-458.051,139046
518.129,-460.374,139122
518.067,-462.698,139006
518.004,-465.022,138408
517.942,-467.347,138343
517.879,-469.672,137573
517.817,-471.998,137276
517.755,-474.324,137812
517.692,-476.651,137101
517.63,-478.978,136408
517.568,-481.306,137479
517.505,-483.635,136399
517.443,-485.964,135512
517.38,-488.294,136102
517.318,-490.624,135196
517.256,-492.955,135605
517.193,-495.286,135446
517.131,-497.618,134823
517.069,-499.951,135441
517.006,-502.284,134551
516.944,-504.618,134359
516.881,-506.952,134493
516.819,-509.287,134331
516.757,-511.622,134113
516.694,-513.958,134808
516.632,-516.294,134110
516.57,-518.631,134058
516.507,-520.969,133759
516.445,-523.307,133220
516.383,-525.646,133691
516.32,-527.985,132951
516.258,-530.325,133226
516.195,-532.665,133216
516.133,-535.006,133145
516.071,-537.348,132748
516.008,-539.69,132329
515.946,-542.033,133241
515.884,-544.376,132339
515.821,-546.72,131789
515.759,-549.064,131708
515.696,-551.409,132127
515.634,-553.755,132447
515.572,-556.101,132014
515.509,-558.448,131781
515.447,-560.795,131391
515.385,-563.143,131341
515.322,-565.491,131650
515.26,-567.84,131500
515.198,-570.189,130279
515.135,-572.539,130641
515.073,-574.89,130207
515.01,-577.241,130487
514.948,-579.593,129681
514.886,-581.945,129972
514.823,-584.298,129118
514.761,-586.652,129323
514.699,-589.006,129517
514.636,-591.361,129532
514.574,-593.716,128821
514.511,-596.072,129365
514.449,-598.428,129140
514.387,-600.785,128623
514.324,-603.142,128182
514.262,-605.5,128203
514.2,-607.859,128145
514.137,-610.218,127514
514.075,-612.578,127657
514.012,-614.938,127041
513.95,-617.299,127423
513.888,-619.661,127001
513.825,-622.023,126590
513.763,-624.385,125877
513.701,-626.749,126239
513.638,-629.112,125801
513.576,-631.477,125466
513.514,-633.842,124945
513.451,-636.207,125443
513.389,-638.573,125107
513.326,-640.94,124672
513.264,-643.307,124563
513.202,-645.675,124830
513.139,-648.043,124246
513.077,-650.412,124076
513.015,-652.782,123664
512.952,-655.152,123303
512.89,-657.523,123134
512.827,-659.894,122922
512.765,-662.266,122681
512.703,-664.638,122971
512.64,-667.011,122897
512.578,-669.385,122874
512.516,-671.759,122058
512.453,-674.134,122109
512.391,-676.509,121481
512.328,-678.885,121570
512.266,-681.261,121018
512.204,-683.638,120857
512.141,-686.016,120010
512.079,-688.394,120334
512.017,-690.773,119580
511.954,-693.152,119458
511.892,-695.532,119872
511.83,-697.913,119449
511.767,-700.294,119023
511.705,-702.676,118312
511.642,-705.058,118323
511.58,-707.441,117966
511.518,-709.824,118157
511.455,-712.208,117173
511.393,-714.593,117558
511.331,-716.978,117281
511.268,-719.364,116515
511.206,-721.75,116513
511.143,-724.137,116370
511.081,-726.525,116387
511.019,-728.913,116158
510.956,-731.301,116191
510.894,-733.691,116188
510.832,-736.08,115701
510.769,-738.471,114880
510.707,-740.862,115200
510.644,-743.253,114458
510.582,-745.646,114768
510.52,-748.038,113838
510.457,-750.432,114244
510.395,-752.826,113426
510.333,-755.22,113161
510.27,-757.615,113395
510.208,-760.011,112843
510.146,-762.407,112670
510.083,-764.804,112381
510.021,-767.201,112123
509.958,-769.599,111125
509.896,-771.998,111228
509.834,-774.397,111470
509.771,-776.797,110495
509.709,-779.197,110727
509.647,-781.598,110676
509.584,-784,109946
509.522,-786.402,110705
509.459,-788.805,109661
509.397,-791.208,109417
509.335,-793.612,109144
509.272,-796.016,109084
509.21,-798.421,108905
509.148,-800.827,108099
509.085,-803.233,107921
509.023,-805.64,107868
508.96,-808.048,107965
508.898,-810.456,107578
508.836,-812.864,107235
508.773,-815.274,107349
508.711,-817.683,107130
525.364,-194.586,79607
525.301,-196.846,79742
525.239,-199.106,79722
525.177,-201.367,79649
525.114,-203.629,80077
525.052,-205.891,80111
524.99,-208.154,80233
524.927,-210.417,80362
524.865,-212.681,79808
524.802,-214.945,80151
524.74,-217.21,79944
524.678,-219.475,80481
524.615,-221.741,80753
524.553,-224.008,80798
524.491,-226.275,80976
524.428,-228.542,80677
524.366,-230.81,80821
524.304,-233.079,81001
524.241,-235.348,81387
524.179,-237.618,80883
524.116,-239.888,81074
524.054,-242.159,81693
523.992,-244.43,81795
523.929,-246.702,81548
523.867,-248.974,82360
523.805,-251.247,82514
523.742,-253.52,82900
523.68,-255.794,83261
523.617,-258.069,84782
523.555,-260.344,86284
523.493,-262.62,88381
523.43,-264.896,91730
523.368,-267.173,96407
523.306,-269.45,102535
523.243,-271.728,110909
523.181,-274.006,118878
523.119,-276.285,128040
523.056,-278.564,136355
522.994,-280.844,143296
522.931,-283.125,149263
522.869,-285.406,153099
522.807,-287.688,156404
522.744,-289.97,158941
522.682,-292.252,159529
522.62,-294.536,161217
522.557,-296.82,162249
522.495,-299.104,161419
522.432,-301.389,161950
522.37,-303.674,162573
522.308,-305.96,161474
522.245,-308.247,161777
522.183,-310.534,161627
522.121,-312.821,160555
522.058,-315.11,161938
521.996,-317.398,160568
521.933,-319.687,160710
521.871,-321.977,160512
521.809,-324.268,159065
521.746,-326.559,159823
521.684,-328.85,158633
521.622,-331.142,159205
521.559,-333.434,158888
521.497,-335.728,158347
521.435,-338.021,158099
521.372,-340.315,157835
521.31,-342.61,158245
521.247,-344.905,157909
521.185,-347.201,157533
521.123,-349.498,156977
521.06,-351.795,156878
520.998,-354.092,156318
520.936,-356.39,156326
520.873,-358.689,155441
520.811,-360.988,155011
520.748,-363.287,154726
520.686,-365.588,155100
520.624,-367.889,153274
520.561,-370.19,152951
520.499,-372.492,152142
520.437,-374.794,152139
520.374,-377.097,151782
520.312,-379.401,151475
520.249,-381.705,151513
520.187,-384.009,150838
520.125,-386.315,150833
520.062,-388.62,151055
520.0,-390.927,150394
519.938,-393.234,149941
519.875,-395.541,149288
519.813,-397.849,150215
519.751,-400.158,148639
519.688,-402.467,149562
519.626,-404.776,149005
519.563,-407.086,148070
519.501,-409.397,148372
519.439,-411.708,147522
519.376,-414.02,147270
519.314,-416.333,147015
519.252,-418.646,146545
519.189,-420.959,145181
519.127,-423.273,145615
519.064,-425.588,144399
519.002,-427.903,143869
518.94,-430.219,144186
518.877,-432.535,142909
518.815,-434.852,142646
518.753,-437.169,142208
518.69,-439.487,142182
518.628,-441.806,142070
518.565,-444.125,141478
518.503,-446.445,140903
518.441,-448.765,140356
518.378,-451.086,140924
518.316,-453.407,140393
518.254,-455.729,139271
518.191,-458.051,140126
518.129,-460.374,139616
518.067,-462.698,139179
518.004,-465.022,138976
517.942,-467.347,138434
517.879,-469.672,139326
517.817,-471.998,138074
517.755,-474.324,138522
517.692,-476.651,137819
517.63,-478.978,137601
517.568,-481.306,137129
517.505,-483.635,137094
517.443,-485.964,137022
517.38,-488.294,136717
517.318,-490.624,136190
517.256,-492.955,136661
517.193,-495.286,135652
517.131,-497.618,135220
517.069,-499.951,135400
517.006,-502.284,135253
516.944,-504.618,135044
516.881,-506.952,134940
516.819,-509.287,134496
516.757,-511.622,134164
516.694,-513.958,134555
516.632,-516.294,135066
516.57,-518.631,134743
516.507,-520.969,134490
516.445,-523.307,135002
516.383,-525.646,134880
516.32,-527.985,133438
516.258,-530.325,133540
516.195,-532.665,133283
516.133,-535.006,133447
516.071,-537.348,133390
516.008,-539.69,133418
515.946,-542.033,133490
515.884,-544.376,132811
515.821,-546.72,132902
515.759,-549.064,132680
515.696,-551.409,132471
515.634,-553.755,132280
515.572,-556.101,131841
515.509,-558.448,131939
515.447,-560.795,132083
515.385,-563.143,131147
515.322,-565.491,132068
515.26,-567.84,132042
515.198,-570.189,130892
515.135,-572.539,130851
515.073,-574.89,130911
515.01,-577.241,130790
514.948,-579.593,130518
514.886,-581.945,130165
514.823,-584.298,129832
514.761,-586.652,129972
514.699,-589.006,129814
514.636,-591.361,129603
514.574,-593.716,129644
514.511,-596.072,131885
514.449,-598.428,129346
514.387,-600.785,128922
514.324,-603.142,129444
514.262,-605.5,128495
514.2,-607.859,128715
514.137,-610.218,128432
514.075,-612.578,128147
514.012,-614.938,127618
513.95,-617.299,127756
513.888,-619.661,127636
513.825,-622.023,127725
513.763,-624.385,127213
513.701,-626.749,126495
513.638,-629.112,126329
513.576,-631.477,126718
513.514,-633.842,125560
513.451,-636.207,125469
513.389,-638.573,125760
513.326,-640.94,125610
513.264,-643.307,124998
513.202,-645.675,125145
513.139,-648.043,124700
513.077,-650.412,124662
513.015,-652.782,124181
512.952,-655.152,123705
512.89,-657.523,124390
512.827,-659.894,123186
512.765,-662.266,123570
512.703,-664.638,123239
512.64,-667.011,123312
512.578,-669.385,122546
512.516,-671.759,122612
512.453,-674.134,122350
512.391,-676.509,122407
512.328,-678.885,121513
512.266,-681.261,121429
512.204,-683.638,121151
512.141,-686.016,121023
512.079,-688.394,120153
512.017,-690.773,120426
511.954,-693.152,119872
511.892,-695.532,119737
511.83,-697.913,119353
511.767,-700.294,119047
511.705,-702.676,119134
511.642,-705.058,119297
511.58,-707.441,118528
511.518,-709.824,119320
511.455,-712.208,118070
511.393,-714.593,117957
511.331,-716.978,117407
511.268,-719.364,117281
511.206,-721.75,117494
511.143,-724.137,116884
511.081,-726.525,116937
511.019,-728.913,116710
510.956,-731.301,116376
510.894,-733.691,115774
510.832,-736.08,115920
510.769,-738.471,115474
510.707,-740.862,115072
510.644,-743.253,115480
510.582,-745.646,115104
510.52,-748.038,114283
510.457,-750.432,114229
510.395,-752.826,113923
510.333,-755.22,113370
510.27,-757.615,113757
510.208,-760.011,113525
510.146,-762.407,112993
510.083,-764.804,113065
510.021,-767.201,112642
509.958,-769.599,112109
509.896,-771.998,112010
509.834,-774.397,111457
509.771,-776.797,111891
509.709,-779.197,111127
509.647,-781.598,110364
509.584,-784,110522
509.522,-786.402,110271
509.459,-788.805,109764
509.397,-791.208,109827
509.335,-793.612,109126
509.272,-796.016,109543
509.21,-798.421,108764
509.148,-800.827,108602
509.085,-803.233,108438
509.023,-805.64,108223
508.96,-808.048,108442
508.898,-810.456,108188
508.836,-812.864,107776
508.773,-815.274,107637
508.711,-817.683,107399
525.364,-194.586,79112
525.301,-196.846,79731
525.239,-199.106,79917
525.177,-201.367,79989
525.114,-203.629,79894
525.052,-205.891,79798
524.99,-208.154,80118
524.927,-210.417,80340
524.865,-212.681,80287
524.802,-214.945,80079
524.74,-217.21,80336
524.678,-219.475,80770
524.615,-221.741,80783
524.553,-224.008,80572
524.491,-226.275,80906
524.428,-228.542,80681
524.366,-230.81,80697
524.304,-233.079,81178
524.241,-235.348,80989
524.179,-237.618,81258
524.116,-239.888,81292
524.054,-242.159,81511
523.992,-244.43,81312
523.929,-246.702,81975
523.867,-248.974,81788
523.805,-251.247,82560
523.742,-253.52,83119
523.68,-255.794,83414
523.617,-258.069,84717
523.555,-260.344,86130
523.493,-262.62,88648
523.43,-264.896,91608
523.368,-267.173,96198
523.306,-269.45,102548
523.243,-271.728,110177
523.181,-274.006,119228
523.119,-276.285,127765
523.056,-278.564,136171
522.994,-280.844,142580
522.931,-283.125,148208
522.869,-285.406,153647
522.807,-287.688,155956
522.744,-289.97,158191
522.682,-292.252,160624
522.62,-294.536,160240
522.557,-296.82,161177
522.495,-299.104,161267
522.432,-301.389,161639
522.37,-303.674,161791
522.308,-305.96,161431
522.245,-308.247,161264
522.183,-310.534,160847
522.121,-312.821,160769
522.058,-315.11,161494
521.996,-317.398,159901
521.933,-319.687,159984
521.871,-321.977,159248
521.809,-324.268,159216
521.746,-326.559,159215
521.684,-328.85,158640
521.622,-331.142,158663
521.559,-333.434,158734
521.497,-335.728,157893
521.435,-338.021,158200
521.372,-340.315,157639
521.31,-342.61,157433
521.247,-344.905,157222
521.185,-347.201,156941
521.123,-349.498,156301
521.06,-351.795,156662
520.998,-354.092,156162
520.936,-356.39,155359
520.873,-358.689,154821
520.811,-360.988,154402
520.748,-363.287,154196
520.686,-365.588,153308
520.624,-367.889,153558
520.561,-370.19,152371
520.499,-372.492,151873
520.437,-374.794,151666
520.374,-377.097,151489
520.312,-379.401,150674
520.249,-381.705,150914
520.187,-384.009,150372
520.125,-386.315,149751
520.062,-388.62,150710
520.0,-390.927,149954
519.938,-393.234,150334
519.875,-395.541,149163
519.813,-397.849,149996
519.751,-400.158,149315
519.688,-402.467,148840
519.626,-404.776,148864
519.563,-407.086,147914
519.501,-409.397,147868
519.439,-411.708,147617
519.376,-414.02,146538
519.314,-416.333,146834
519.252,-418.646,145589
519.189,-420.959,145796
519.127,-423.273,144423
519.064,-425.588,144658
519.002,-427.903,143704
518.94,-430.219,143282
518.877,-432.535,143269
518.815,-434.852,142129
518.753,-437.169,142011
518.69,-439.487,141105
518.628,-441.806,140623
518.565,-444.125,140870
518.503,-446.445,140749
518.441,-448.765,140316
518.378,-451.086,140415
518.316,-453.407,139989
518.254,-455.729,140216
518.191,-458.051,139315
518.129,-460.374,139515
518.067,-462.698,139172
518.004,-465.022,138940
517.942,-467.347,138186
517.879,-469.672,137922
517.817,-471.998,137672
517.755,-474.324,137959
517.692,-476.651,137228
517.63,-478.978,137757
517.568,-481.306,136622
517.505,-483.635,136338
517.443,-485.964,136356
517.38,-488.294,136244
517.318,-490.624,136163
517.256,-492.955,135682
517.193,-495.286,135615
517.131,-497.618,135197
517.069,-499.951,135356
517.006,-502.284,134687
516.944,-504.618,134775
516.881,-506.952,134698
516.819,-509.287,134677
516.757,-511.622,134060
516.694,-513.958,134872
516.632,-516.294,134108
516.57,-518.631,134668
516.507,-520.969,133925
516.445,-523.307,133703
516.383,-525.646,134345
516.32,-527.985,133704
516.258,-530.325,133738
516.195,-532.665,133208
516.133,-535.006,133346
516.071,-537.348,133046
516.008,-539.69,132546
515.946,-542.033,132509
515.884,-544.376,132810
515.821,-546.72,132947
515.759,-549.064,132246
515.696,-551.409,131977
515.634,-553.755,132709
515.572,-556.101,132143
515.509,-558.448,131354
515.447,-560.795,131732
515.385,-563.143,131318
515.322,-565.491,130868
515.26,-567.84,130899
515.198,-570.189,131187
515.135,-572.539,130538
515.073,-574.89,130352
515.01,-577.241,130089
514.948,-579.593,130053
514.886,-581.945,130529
514.823,-584.298,129543
514.761,-586.652,129849
514.699,-589.006,129775
514.636,-591.361,129254
514.574,-593.716,128576
514.511,-596.072,129386
514.449,-598.428,128652
514.387,-600.785,128967
514.324,-603.142,128552
514.262,-605.5,128266
514.2,-607.859,129159
514.137,-610.218,128368
514.075,-612.578,127899
514.012,-614.938,127625
513.95,-617.299,127258
513.888,-619.661,126795
513.825,-622.023,126593
513.763,-624.385,126654
513.701,-626.749,126348
513.638,-629.112,126215
513.576,-631.477,126666
513.514,-633.842,125416
513.451,-636.207,125656
513.389,-638.573,125512
513.326,-640.94,125198
513.264,-643.307,124476
513.202,-645.675,124925
513.139,-648.043,123672
513.077,-650.412,124082
513.015,-652.782,123983
512.952,-655.152,123557
512.89,-657.523,123663
512.827,-659.894,123017
512.765,-662.266,123237
512.703,-664.638,122992
512.64,-667.011,122332
512.578,-669.385,122875
512.516,-671.759,122060
512.453,-674.134,121575
512.391,-676.509,121538
512.328,-678.885,121253
512.266,-681.261,121447
512.204,-683.638,120724
512.141,-686.016,120582
512.079,-688.394,120378
512.017,-690.773,119602
511.954,-693.152,119741
511.892,-695.532,119369
511.83,-697.913,119120
511.767,-700.294,118574
511.705,-702.676,118470
511.642,-705.058,118821
511.58,-707.441,118111
511.518,-709.824,117741
511.455,-712.208,117478
511.393,-714.593,117776
511.331,-716.978,117510
511.268,-719.364,117082
511.206,-721.75,116985
511.143,-724.137,116623
511.081,-726.525,116399
511.019,-728.913,115931
510.956,-731.301,116202
510.894,-733.691,115753
510.832,-736.08,115756
510.769,-738.471,115337
510.707,-740.862,114600
510.644,-743.253,114974
510.582,-745.646,113878
510.52,-748.038,114204
510.457,-750.432,113928
510.395,-752.826,113476
510.333,-755.22,113434
510.27,-757.615,113303
510.208,-760.011,113227
510.146,-762.407,112592
510.083,-764.804,112599
510.021,-767.201,111826
509.958,-769.599,111809
509.896,-771.998,111603
509.834,-774.397,111378
509.771,-776.797,111132
509.709,-779.197,110888
509.647,-781.598,110641
509.584,-784,110606
509.522,-786.402,110402
509.459,-788.805,109784
509.397,-791.208,109389
509.335,-793.612,109512
509.272,-796.016,109141
509.21,-798.421,108787
509.148,-800.827,109033
509.085,-803.233,108104
509.023,-805.64,107916
508.96,-808.048,107883
508.898,-810.456,107557
508.836,-812.864,107083
508.773,-815.274,106923
508.711,-817.683,106945
525.364,-194.586,79430
525.301,-196.846,79897
525.239,-199.106,79967
525.177,-201.367,79785
525.114,-203.629,79797
525.052,-205.891,80038
524.99,-208.154,80024
524.927,-210.417,80024
524.865,-212.681,80270
524.802,-214.945,80106
524.74,-217.21,80174
524.678,-219.475,80222
524.615,-221.741,80846
524.553,-224.008,80819
524.491,-226.275,80853
524.428,-228.542,80863
524.366,-230.81,81013
524.304,-233.079,81336
524.241,-235.348,80905
524.179,-237.618,81180
524.116,-239.888,81445
524.054,-242.159,81154
523.992,-244.43,81873
523.929,-246.702,81811
523.867,-248.974,82219
523.805,-251.247,82660
523.742,-253.52,83133
523.68,-255.794,83441
523.617,-258.069,84716
523.555,-260.344,86119
523.493,-262.62,88341
523.43,-264.896,91992
523.368,-267.173,96404
523.306,-269.45,102834
523.243,-271.728,110434
523.181,-274.006,118952
523.119,-276.285,127415
523.056,-278.564,136184
522.994,-280.844,143063
522.931,-283.125,149101
522.869,-285.406,153296
522.807,-287.688,156441
522.744,-289.97,158612
522.682,-292.252,159501
522.62,-294.536,160254
522.557,-296.82,161001
522.495,-299.104,161614
522.432,-301.389,161138
522.37,-303.674,162128
522.308,-305.96,161968
522.245,-308.247,161591
522.183,-310.534,161079
522.121,-312.821,161934
522.058,-315.11,161272
521.996,-317.398,160804
521.933,-319.687,160476
521.871,-321.977,159849
521.809,-324.268,159759
521.746,-326.559,159272
521.684,-328.85,158821
521.622,-331.142,158993
521.559,-333.434,158274
521.497,-335.728,158531
521.435,-338.021,157708
521.372,-340.315,158729
521.31,-342.61,157654
521.247,-344.905,157398
521.185,-347.201,157316
521.123,-349.498,156694
521.06,-351.795,156337
520.998,-354.092,156482
520.936,-356.39,155599
520.873,-358.689,154560
520.811,-360.988,155071
520.748,-363.287,154427
520.686,-365.588,153190
520.624,-367.889,153471
520.561,-370.19,152779
520.499,-372.492,152018
520.437,-374.794,152353
520.374,-377.097,151868
520.312,-379.401,151391
520.249,-381.705,150824
520.187,-384.009,150805
520.125,-386.315,150274
520.062,-388.62,150652
520.0,-390.927,150313
519.938,-393.234,150894
519.875,-395.541,149112
519.813,-397.849,150197
519.751,-400.158,149572
519.688,-402.467,148958
519.626,-404.776,148625
519.563,-407.086,148219
519.501,-409.397,148479
519.439,-411.708,147189
519.376,-414.02,146333
519.314,-416.333,146409
519.252,-418.646,146019
519.189,-420.959,145638
519.127,-423.273,144784
519.064,-425.588,144842
519.002,-427.903,144238
518.94,-430.219,143149
518.877,-432.535,142427
518.815,-434.852,142269
518.753,-437.169,142498
518.69,-439.487,141472
518.628,-441.806,141599
518.565,-444.125,140283
518.503,-446.445,140401
518.441,-448.765,140996
518.378,-451.086,139927
518.316,-453.407,140070
518.254,-455.729,139581
518.191,-458.051,139825
518.129,-460.374,139735
518.067,-462.698,139780
518.004,-465.022,139464
517.942,-467.347,139292
517.879,-469.672,138300
517.817,-471.998,137942
517.755,-474.324,137792
517.692,-476.651,137615
517.63,-478.978,137274
517.568,-481.306,136427
517.505,-483.635,136721
517.443,-485.964,135956
517.38,-488.294,136147
517.318,-490.624,136010
517.256,-492.955,135647
517.193,-495.286,135550
517.131,-497.618,135430
517.069,-499.951,136043
517.006,-502.284,135185
516.944,-504.618,135548
516.881,-506.952,135090
516.819,-509.287,134526
516.757,-511.622,134837
516.694,-513.958,134913
516.632,-516.294,134383
516.57,-518.631,133694
516.507,-520.969,134186
516.445,-523.307,134032
516.383,-525.646,133811
516.32,-527.985,134243
516.258,-530.325,133166
516.195,-532.665,133574
516.133,-535.006,133514
516.071,-537.348,133052
516.008,-539.69,132722
515.946,-542.033,132762
515.884,-544.376,132807
515.821,-546.72,132925
515.759,-549.064,132825
515.696,-551.409,132173
515.634,-553.755,131851
515.572,-556.101,132105
515.509,-558.448,131697
515.447,-560.795,131514
515.385,-563.143,131324
515.322,-565.491,131593
515.26,-567.84,131835
515.198,-570.189,130887
515.135,-572.539,131704
515.073,-574.89,130980
515.01,-577.241,130878
514.948,-579.593,130028
514.886,-581.945,130673
514.823,-584.298,130147
514.761,-586.652,130597
514.699,-589.006,130171
514.636,-591.361,129407
514.574,-593.716,129324
514.511,-596.072,129153
514.449,-598.428,129461
514.387,-600.785,129383
514.324,-603.142,128633
514.262,-605.5,129068
514.2,-607.859,128797
514.137,-610.218,128173
514.075,-612.578,127420
514.012,-614.938,128318
513.95,-617.299,127696
513.888,-619.661,127413
513.825,-622.023,127767
513.763,-624.385,126954
513.701,-626.749,126750
513.638,-629.112,126209
513.576,-631.477,126315
513.514,-633.842,125427
513.451,-636.207,125684
513.389,-638.573,124906
513.326,-640.94,124859
513.264,-643.307,124950
513.202,-645.675,124979
513.139,-648.043,124955
513.077,-650.412,123930
513.015,-652.782,123915
512.952,-655.152,123830
512.89,-657.523,123923
512.827,-659.894,123000
512.765,-662.266,123220
512.703,-664.638,123669
512.64,-667.011,122823
512.578,-669.385,122438
512.516,-671.759,122113
512.453,-674.134,122292
512.391,-676.509,122167
512.328,-678.885,121313
512.266,-681.261,121876
512.204,-683.638,120605
512.141,-686.016,120805
512.079,-688.394,120627
512.017,-690.773,120025
511.954,-693.152,119927
511.892,-695.532,119506
511.83,-697.913,119573
511.767,-700.294,119061
511.705,-702.676,118952
511.642,-705.058,118774
511.58,-707.441,118558
511.518,-709.824,117972
511.455,-712.208,118183
511.393,-714.593,118477
511.331,-716.978,117468
511.268,-719.364,117245
511.206,-721.75,116912
511.143,-724.137,116744
511.081,-726.525,116932
511.019,-728.913,116503
510.956,-731.301,116913
510.894,-733.691,115967
510.832,-736.08,115416
510.769,-738.471,115318
510.707,-740.862,114882
510.644,-743.253,114779
510.582,-745.646,114388
510.52,-748.038,114150
510.457,-750.432,114477
510.395,-752.826,114195
510.333,-755.22,113821
510.27,-757.615,113801
510.208,-760.011,113278
510.146,-762.407,112905
510.083,-764.804,112739
510.021,-767.201,111837
509.958,-769.599,111958
509.896,-771.998,111723
509.834,-774.397,111051
509.771,-776.797,111225
509.709,-779.197,110988
509.647,-781.598,110626
509.584,-784,110632
509.522,-786.402,110417
509.459,-788.805,110136
509.397,-791.208,109764
509.335,-793.612,109221
509.272,-796.016,109353
509.21,-798.421,108574
509.148,-800.827,108661
509.085,-803.233,108361
509.023,-805.64,108383
508.96,-808.048,108189
508.898,-810.456,107823
508.836,-812.864,107896
508.773,-815.274,107314
508.711,-817.683,107154
508.661,-819.612,106484