File: tomke/20240809_Si_on_TiO2/20240809/raw_data/Si_onTiO2_50mA_30mW_30sec_5acc_545nm_bg.txt
Wavelength(nm), Raman shift(cm^-1), Intensity(counts)
553.364,768.549,78775
553.301,766.512,78999
553.239,764.475,79003
553.177,762.437,79354
553.114,760.398,78867
553.052,758.359,78664
552.99,756.32,78778
552.927,754.28,79147
552.865,752.24,79163
552.802,750.199,78977
552.74,748.158,78867
552.678,746.116,78737
552.615,744.074,78715
552.553,742.032,79002
552.491,739.989,78700
552.428,737.945,78659
552.366,735.901,78800
552.304,733.857,78393
552.241,731.812,78647
552.179,729.766,78437
552.116,727.721,78848
552.054,725.674,78385
551.992,723.628,78562
551.929,721.58,78949
551.867,719.533,78709
551.805,717.485,78627
551.742,715.436,78631
551.68,713.387,78599
551.617,711.337,78516
551.555,709.287,78565
551.493,707.237,78520
551.43,705.186,78511
551.368,703.135,78802
551.306,701.083,78631
551.243,699.031,78764
551.181,696.978,78542
551.119,694.925,78546
551.056,692.871,78944
550.994,690.817,78358
550.931,688.762,78857
550.869,686.707,78370
550.807,684.651,78828
550.744,682.595,78728
550.682,680.539,78547
550.62,678.482,78319
550.557,676.425,78579
550.495,674.367,78603
550.432,672.308,78485
550.37,670.25,78374
550.308,668.19,78527
550.245,666.131,78261
550.183,664.07,78406
550.121,662.01,78165
550.058,659.948,78303
549.996,657.887,77784
549.933,655.825,78246
549.871,653.762,77665
549.809,651.699,77886
549.746,649.636,78125
549.684,647.572,78081
549.622,645.507,78247
549.559,643.442,78260
549.497,641.377,78052
549.435,639.311,78352
549.372,637.245,78190
549.31,635.178,78154
549.247,633.111,78010
549.185,631.043,78191
549.123,628.975,77897
549.06,626.906,78071
548.998,624.837,77948
548.936,622.768,77978
548.873,620.698,78130
548.811,618.627,77964
548.748,616.556,78072
548.686,614.485,78038
548.624,612.413,77660
548.561,610.34,77777
548.499,608.267,77695
548.437,606.194,77315
548.374,604.12,77436
548.312,602.046,77773
548.249,599.971,77294
548.187,597.896,77535
548.125,595.82,77088
548.062,593.744,77081
548.0,591.667,76978
547.938,589.59,76740
547.875,587.513,76849
547.813,585.434,76743
547.751,583.356,76403
547.688,581.277,76557
547.626,579.197,76643
547.563,577.117,76315
547.501,575.037,76400
547.439,572.956,76370
547.376,570.875,76151
547.314,568.793,76395
547.252,566.71,75869
547.189,564.628,77375
547.127,562.544,75971
547.064,560.461,76116
547.002,558.376,76176
546.94,556.292,76171
546.877,554.206,75751
546.815,552.121,75760
546.753,550.035,75729
546.69,547.948,75792
546.628,545.861,75826
546.565,543.773,75903
546.503,541.685,75520
546.441,539.597,75427
546.378,537.508,75485
546.316,535.418,75482
546.254,533.328,75322
546.191,531.238,75305
546.129,529.147,75240
546.067,527.056,75257
546.004,524.964,75243
545.942,522.871,75186
545.879,520.778,74913
545.817,518.685,74723
545.755,516.591,74827
545.692,514.497,74660
545.63,512.402,74816
545.568,510.307,74582
545.505,508.211,74718
545.443,506.115,74538
545.38,504.019,74247
545.318,501.922,74237
545.256,499.824,74394
545.193,497.726,74637
545.131,495.627,74459
545.069,493.528,74538
545.006,491.429,74794
544.944,489.329,74234
544.881,487.228,74469
544.819,485.127,74295
544.757,483.026,74560
544.694,480.924,74320
544.632,478.821,74584
544.57,476.718,74588
544.507,474.615,74279
544.445,472.511,74423
544.383,470.407,74353
544.32,468.302,74509
544.258,466.197,74420
544.195,464.091,74015
544.133,461.985,74299
544.071,459.878,74381
544.008,457.771,74594
543.946,455.663,74115
543.884,453.555,73947
543.821,451.446,74025
543.759,449.337,73755
543.696,447.227,73715
543.634,445.117,73863
543.572,443.006,73714
543.509,440.895,73661
543.447,438.784,73816
543.385,436.671,73679
543.322,434.559,73687
543.26,432.446,73835
543.198,430.332,73508
543.135,428.218,73711
543.073,426.104,73525
543.01,423.989,73740
542.948,421.873,73418
542.886,419.757,73862
542.823,417.641,73550
542.761,415.524,73393
542.699,413.407,73722
542.636,411.289,73805
542.574,409.17,73540
542.511,407.051,73478
542.449,404.932,73632
542.387,402.812,73421
542.324,400.692,73534
542.262,398.571,73634
542.2,396.45,73661
542.137,394.328,73348
542.075,392.205,73733
542.012,390.083,73086
541.95,387.959,73490
541.888,385.836,73337
541.825,383.711,73190
541.763,381.587,73015
541.701,379.461,72915
541.638,377.336,72860
541.576,375.209,73015
541.514,373.083,73009
541.451,370.955,73090
541.389,368.828,73085
541.326,366.7,73149
541.264,364.571,73138
541.202,362.442,72458
541.139,360.312,72952
541.077,358.182,72679
541.015,356.051,72717
540.952,353.92,72768
540.89,351.789,72745
540.827,349.657,72684
540.765,347.524,72902
540.703,345.391,72833
540.64,343.257,72475
540.578,341.123,72278
540.516,338.989,72479
540.453,336.854,72206
540.391,334.718,72338
540.328,332.582,71998
540.266,330.445,72110
540.204,328.308,72055
540.141,326.171,71775
540.079,324.033,71828
540.017,321.894,71742
539.954,319.755,71742
539.892,317.616,71618
539.83,315.476,71638
539.767,313.335,71748
539.705,311.194,71809
539.642,309.053,71699
539.58,306.911,71746
539.518,304.768,71964
539.455,302.625,71906
539.393,300.482,73500
539.331,298.338,72901
539.268,296.194,71191
539.206,294.049,71156
539.143,291.903,70685
539.081,289.757,70520
539.019,287.611,70382
538.956,285.464,69865
538.894,283.316,70327
538.832,281.169,84259
538.769,279.02,70052
538.707,276.871,70063
538.644,274.722,70145
538.582,272.572,69746
538.52,270.421,69157
538.457,268.271,67950
538.395,266.119,66981
538.333,263.967,65654
538.27,261.815,64570
538.208,259.662,63377
538.146,257.508,62684
538.083,255.355,62093
538.021,253.2,61727
537.958,251.045,61454
537.896,248.89,61225
537.834,246.734,61125
537.771,244.578,60982
537.709,242.421,60936
537.647,240.263,60928
537.584,238.105,60927
537.522,235.947,67937
537.459,233.788,60893
537.397,231.629,60896
537.335,229.469,60814
537.272,227.308,60802
537.21,225.147,60762
537.148,222.986,60820
537.085,220.824,60802
537.023,218.662,60855
536.96,216.499,60808
536.898,214.335,60789
536.836,212.171,60784
536.773,210.007,60849
536.711,207.842,60846
553.364,768.549,78791
553.301,766.512,79434
553.239,764.475,79775
553.177,762.437,79598
553.114,760.398,79362
553.052,758.359,79348
552.99,756.32,79697
552.927,754.28,79709
552.865,752.24,78859
552.802,750.199,79917
552.74,748.158,79407
552.678,746.116,79362
552.615,744.074,79641
552.553,742.032,79183
552.491,739.989,79159
552.428,737.945,78935
552.366,735.901,79380
552.304,733.857,79242
552.241,731.812,78777
552.179,729.766,79189
552.116,727.721,79318
552.054,725.674,79142
551.992,723.628,79241
551.929,721.58,79057
551.867,719.533,79083
551.805,717.485,79145
551.742,715.436,79101
551.68,713.387,78891
551.617,711.337,78946
551.555,709.287,79040
551.493,707.237,78884
551.43,705.186,79027
551.368,703.135,79107
551.306,701.083,79116
551.243,699.031,78942
551.181,696.978,95217
551.119,694.925,79104
551.056,692.871,79184
550.994,690.817,79179
550.931,688.762,79069
550.869,686.707,78973
550.807,684.651,78857
550.744,682.595,78989
550.682,680.539,78742
550.62,678.482,78863
550.557,676.425,78829
550.495,674.367,79291
550.432,672.308,78618
550.37,670.25,78835
550.308,668.19,78427
550.245,666.131,78471
550.183,664.07,78545
550.121,662.01,78699
550.058,659.948,78557
549.996,657.887,78762
549.933,655.825,78519
549.871,653.762,78762
549.809,651.699,78495
549.746,649.636,78436
549.684,647.572,78305
549.622,645.507,78643
549.559,643.442,78647
549.497,641.377,78394
549.435,639.311,78167
549.372,637.245,78254
549.31,635.178,78656
549.247,633.111,78573
549.185,631.043,78297
549.123,628.975,78608
549.06,626.906,78685
548.998,624.837,78252
548.936,622.768,78391
548.873,620.698,78491
548.811,618.627,78345
548.748,616.556,78227
548.686,614.485,78458
548.624,612.413,78346
548.561,610.34,78339
548.499,608.267,77974
548.437,606.194,78047
548.374,604.12,77668
548.312,602.046,77736
548.249,599.971,77508
548.187,597.896,77488
548.125,595.82,77595
548.062,593.744,77387
548.0,591.667,77321
547.938,589.59,77677
547.875,587.513,77172
547.813,585.434,77251
547.751,583.356,77205
547.688,581.277,76942
547.626,579.197,76843
547.563,577.117,76410
547.501,575.037,76987
547.439,572.956,76674
547.376,570.875,76557
547.314,568.793,76422
547.252,566.71,76547
547.189,564.628,76365
547.127,562.544,76606
547.064,560.461,76628
547.002,558.376,76642
546.94,556.292,75990
546.877,554.206,75951
546.815,552.121,76115
546.753,550.035,75941
546.69,547.948,76085
546.628,545.861,76306
546.565,543.773,76066
546.503,541.685,76198
546.441,539.597,76022
546.378,537.508,75928
546.316,535.418,75672
546.254,533.328,75546
546.191,531.238,75668
546.129,529.147,75382
546.067,527.056,75416
546.004,524.964,75461
545.942,522.871,75504
545.879,520.778,75276
545.817,518.685,75183
545.755,516.591,75082
545.692,514.497,75091
545.63,512.402,74991
545.568,510.307,75032
545.505,508.211,75230
545.443,506.115,74439
545.38,504.019,74959
545.318,501.922,74661
545.256,499.824,74869
545.193,497.726,74600
545.131,495.627,74558
545.069,493.528,74949
545.006,491.429,74603
544.944,489.329,74609
544.881,487.228,74744
544.819,485.127,74793
544.757,483.026,74941
544.694,480.924,74692
544.632,478.821,74840
544.57,476.718,74957
544.507,474.615,74790
544.445,472.511,74915
544.383,470.407,74781
544.32,468.302,74848
544.258,466.197,74799
544.195,464.091,74574
544.133,461.985,74625
544.071,459.878,74611
544.008,457.771,74436
543.946,455.663,74477
543.884,453.555,74577
543.821,451.446,74408
543.759,449.337,74210
543.696,447.227,74296
543.634,445.117,74177
543.572,443.006,73918
543.509,440.895,74167
543.447,438.784,74003
543.385,436.671,73865
543.322,434.559,73857
543.26,432.446,74024
543.198,430.332,73817
543.135,428.218,74059
543.073,426.104,73929
543.01,423.989,74127
542.948,421.873,73982
542.886,419.757,74035
542.823,417.641,73899
542.761,415.524,74076
542.699,413.407,74383
542.636,411.289,73862
542.574,409.17,73779
542.511,407.051,73942
542.449,404.932,73602
542.387,402.812,73713
542.324,400.692,73700
542.262,398.571,73853
542.2,396.45,73592
542.137,394.328,73704
542.075,392.205,73945
542.012,390.083,73685
541.95,387.959,73559
541.888,385.836,73559
541.825,383.711,73521
541.763,381.587,73502
541.701,379.461,73570
541.638,377.336,73333
541.576,375.209,73154
541.514,373.083,73174
541.451,370.955,73260
541.389,368.828,73314
541.326,366.7,73441
541.264,364.571,73062
541.202,362.442,73275
541.139,360.312,73224
541.077,358.182,73237
541.015,356.051,73149
540.952,353.92,73070
540.89,351.789,73168
540.827,349.657,72949
540.765,347.524,72952
540.703,345.391,72769
540.64,343.257,72676
540.578,341.123,72788
540.516,338.989,72538
540.453,336.854,72512
540.391,334.718,72405
540.328,332.582,72469
540.266,330.445,72387
540.204,328.308,72121
540.141,326.171,71842
540.079,324.033,71974
540.017,321.894,72084
539.954,319.755,71975
539.892,317.616,71916
539.83,315.476,71873
539.767,313.335,72073
539.705,311.194,71823
539.642,309.053,71967
539.58,306.911,72051
539.518,304.768,71933
539.455,302.625,71885
539.393,300.482,71891
539.331,298.338,71774
539.268,296.194,71368
539.206,294.049,71242
539.143,291.903,71032
539.081,289.757,71037
539.019,287.611,70634
538.956,285.464,70323
538.894,283.316,70337
538.832,281.169,70209
538.769,279.02,70359
538.707,276.871,70229
538.644,274.722,70163
538.582,272.572,69717
538.52,270.421,69303
538.457,268.271,68308
538.395,266.119,67134
538.333,263.967,65825
538.27,261.815,64686
538.208,259.662,63561
538.146,257.508,62768
538.083,255.355,62157
538.021,253.2,61740
537.958,251.045,61406
537.896,248.89,61279
537.834,246.734,61208
537.771,244.578,60996
537.709,242.421,60946
537.647,240.263,61026
537.584,238.105,60855
537.522,235.947,60814
537.459,233.788,60880
537.397,231.629,60869
537.335,229.469,60818
537.272,227.308,60921
537.21,225.147,60876
537.148,222.986,60796
537.085,220.824,60727
537.023,218.662,60841
536.96,216.499,60859
536.898,214.335,60843
536.836,212.171,60847
536.773,210.007,60846
536.711,207.842,60768
553.364,768.549,78836
553.301,766.512,79073
553.239,764.475,78841
553.177,762.437,79062
553.114,760.398,78812
553.052,758.359,78875
552.99,756.32,78846
552.927,754.28,79039
552.865,752.24,79176
552.802,750.199,78576
552.74,748.158,78772
552.678,746.116,78860
552.615,744.074,79070
552.553,742.032,79218
552.491,739.989,79082
552.428,737.945,78822
552.366,735.901,78716
552.304,733.857,78624
552.241,731.812,78975
552.179,729.766,78594
552.116,727.721,78676
552.054,725.674,78506
551.992,723.628,78374
551.929,721.58,78852
551.867,719.533,78769
551.805,717.485,78634
551.742,715.436,78879
551.68,713.387,78488
551.617,711.337,78635
551.555,709.287,78613
551.493,707.237,78806
551.43,705.186,78953
551.368,703.135,78568
551.306,701.083,78625
551.243,699.031,78728
551.181,696.978,78528
551.119,694.925,78915
551.056,692.871,78392
550.994,690.817,78701
550.931,688.762,78665
550.869,686.707,78691
550.807,684.651,78549
550.744,682.595,78615
550.682,680.539,78287
550.62,678.482,78646
550.557,676.425,78414
550.495,674.367,78536
550.432,672.308,78301
550.37,670.25,78012
550.308,668.19,78100
550.245,666.131,78262
550.183,664.07,78248
550.121,662.01,78391
550.058,659.948,78181
549.996,657.887,78309
549.933,655.825,78201
549.871,653.762,77929
549.809,651.699,77976
549.746,649.636,78374
549.684,647.572,78278
549.622,645.507,78410
549.559,643.442,78100
549.497,641.377,78006
549.435,639.311,78099
549.372,637.245,77768
549.31,635.178,77835
549.247,633.111,78243
549.185,631.043,78170
549.123,628.975,78145
549.06,626.906,77778
548.998,624.837,78049
548.936,622.768,78105
548.873,620.698,77802
548.811,618.627,78033
548.748,616.556,77813
548.686,614.485,78342
548.624,612.413,77886
548.561,610.34,77670
548.499,608.267,77672
548.437,606.194,77495
548.374,604.12,77762
548.312,602.046,77195
548.249,599.971,77600
548.187,597.896,77243
548.125,595.82,77211
548.062,593.744,77575
548.0,591.667,76960
547.938,589.59,77031
547.875,587.513,76795
547.813,585.434,76744
547.751,583.356,76725
547.688,581.277,76698
547.626,579.197,76381
547.563,577.117,76436
547.501,575.037,76609
547.439,572.956,76721
547.376,570.875,76074
547.314,568.793,75990
547.252,566.71,76195
547.189,564.628,76149
547.127,562.544,75817
547.064,560.461,76235
547.002,558.376,76017
546.94,556.292,75953
546.877,554.206,75842
546.815,552.121,76221
546.753,550.035,75815
546.69,547.948,75752
546.628,545.861,75751
546.565,543.773,75642
546.503,541.685,75683
546.441,539.597,75650
546.378,537.508,75511
546.316,535.418,75418
546.254,533.328,75310
546.191,531.238,75266
546.129,529.147,75153
546.067,527.056,75242
546.004,524.964,75248
545.942,522.871,75286
545.879,520.778,75086
545.817,518.685,74932
545.755,516.591,74778
545.692,514.497,74528
545.63,512.402,74684
545.568,510.307,74818
545.505,508.211,74673
545.443,506.115,74644
545.38,504.019,74599
545.318,501.922,74777
545.256,499.824,74579
545.193,497.726,74532
545.131,495.627,74554
545.069,493.528,74358
545.006,491.429,74511
544.944,489.329,74583
544.881,487.228,74708
544.819,485.127,74502
544.757,483.026,74542
544.694,480.924,74388
544.632,478.821,74516
544.57,476.718,74613
544.507,474.615,74316
544.445,472.511,74536
544.383,470.407,74079
544.32,468.302,74363
544.258,466.197,74286
544.195,464.091,74087
544.133,461.985,74500
544.071,459.878,74178
544.008,457.771,74180
543.946,455.663,74328
543.884,453.555,74093
543.821,451.446,74008
543.759,449.337,73945
543.696,447.227,74123
543.634,445.117,73829
543.572,443.006,73693
543.509,440.895,73866
543.447,438.784,73830
543.385,436.671,73503
543.322,434.559,73622
543.26,432.446,73822
543.198,430.332,73581
543.135,428.218,73766
543.073,426.104,73636
543.01,423.989,73732
542.948,421.873,73420
542.886,419.757,73683
542.823,417.641,73552
542.761,415.524,73733
542.699,413.407,73651
542.636,411.289,73926
542.574,409.17,73358
542.511,407.051,73281
542.449,404.932,73837
542.387,402.812,73576
542.324,400.692,73577
542.262,398.571,73652
542.2,396.45,73678
542.137,394.328,73384
542.075,392.205,73623
542.012,390.083,73098
541.95,387.959,73245
541.888,385.836,73217
541.825,383.711,73187
541.763,381.587,72994
541.701,379.461,72981
541.638,377.336,72833
541.576,375.209,73121
541.514,373.083,72858
541.451,370.955,73024
541.389,368.828,72578
541.326,366.7,73038
541.264,364.571,72752
541.202,362.442,72902
541.139,360.312,72799
541.077,358.182,72813
541.015,356.051,72687
540.952,353.92,72713
540.89,351.789,72770
540.827,349.657,72865
540.765,347.524,72921
540.703,345.391,72798
540.64,343.257,72388
540.578,341.123,72449
540.516,338.989,72295
540.453,336.854,72176
540.391,334.718,71972
540.328,332.582,71886
540.266,330.445,71934
540.204,328.308,71981
540.141,326.171,71729
540.079,324.033,71746
540.017,321.894,71894
539.954,319.755,71708
539.892,317.616,71479
539.83,315.476,71548
539.767,313.335,71579
539.705,311.194,71730
539.642,309.053,71753
539.58,306.911,71837
539.518,304.768,71947
539.455,302.625,71517
539.393,300.482,71833
539.331,298.338,71455
539.268,296.194,71174
539.206,294.049,70982
539.143,291.903,70613
539.081,289.757,70537
539.019,287.611,70288
538.956,285.464,70232
538.894,283.316,70256
538.832,281.169,69843
538.769,279.02,70260
538.707,276.871,69921
538.644,274.722,70121
538.582,272.572,69676
538.52,270.421,69104
538.457,268.271,68232
538.395,266.119,67092
538.333,263.967,65766
538.27,261.815,64291
538.208,259.662,63573
538.146,257.508,62579
538.083,255.355,62102
538.021,253.2,61749
537.958,251.045,61347
537.896,248.89,61264
537.834,246.734,61100
537.771,244.578,61013
537.709,242.421,60863
537.647,240.263,60895
537.584,238.105,60886
537.522,235.947,60790
537.459,233.788,60779
537.397,231.629,60845
537.335,229.469,60805
537.272,227.308,60845
537.21,225.147,60889
537.148,222.986,60922
537.085,220.824,60862
537.023,218.662,60805
536.96,216.499,60746
536.898,214.335,60939
536.836,212.171,60824
536.773,210.007,60899
536.711,207.842,60756
553.364,768.549,79015
553.301,766.512,79467
553.239,764.475,79677
553.177,762.437,79620
553.114,760.398,79278
553.052,758.359,79447
552.99,756.32,79538
552.927,754.28,79492
552.865,752.24,79137
552.802,750.199,79607
552.74,748.158,79509
552.678,746.116,79420
552.615,744.074,79202
552.553,742.032,79495
552.491,739.989,79451
552.428,737.945,79164
552.366,735.901,79129
552.304,733.857,78885
552.241,731.812,78772
552.179,729.766,79070
552.116,727.721,79209
552.054,725.674,78741
551.992,723.628,78835
551.929,721.58,78840
551.867,719.533,79173
551.805,717.485,79169
551.742,715.436,79141
551.68,713.387,78711
551.617,711.337,79034
551.555,709.287,79100
551.493,707.237,79066
551.43,705.186,79002
551.368,703.135,78986
551.306,701.083,78995
551.243,699.031,79199
551.181,696.978,79246
551.119,694.925,78562
551.056,692.871,78944
550.994,690.817,78591
550.931,688.762,79196
550.869,686.707,78998
550.807,684.651,78780
550.744,682.595,78608
550.682,680.539,78980
550.62,678.482,78784
550.557,676.425,78684
550.495,674.367,78762
550.432,672.308,78671
550.37,670.25,78769
550.308,668.19,78776
550.245,666.131,78615
550.183,664.07,78385
550.121,662.01,78414
550.058,659.948,78425
549.996,657.887,78495
549.933,655.825,78601
549.871,653.762,78754
549.809,651.699,78509
549.746,649.636,78513
549.684,647.572,78672
549.622,645.507,78419
549.559,643.442,78408
549.497,641.377,78576
549.435,639.311,78892
549.372,637.245,78725
549.31,635.178,78351
549.247,633.111,78582
549.185,631.043,78474
549.123,628.975,78658
549.06,626.906,78380
548.998,624.837,78483
548.936,622.768,78454
548.873,620.698,78615
548.811,618.627,78177
548.748,616.556,78393
548.686,614.485,78574
548.624,612.413,78263
548.561,610.34,78298
548.499,608.267,78108
548.437,606.194,77925
548.374,604.12,77959
548.312,602.046,78109
548.249,599.971,77434
548.187,597.896,77857
548.125,595.82,77601
548.062,593.744,77528
548.0,591.667,77474
547.938,589.59,77119
547.875,587.513,77334
547.813,585.434,77440
547.751,583.356,77352
547.688,581.277,77137
547.626,579.197,76725
547.563,577.117,77051
547.501,575.037,77018
547.439,572.956,76902
547.376,570.875,76629
547.314,568.793,76535
547.252,566.71,76628
547.189,564.628,76484
547.127,562.544,76097
547.064,560.461,76723
547.002,558.376,76222
546.94,556.292,76295
546.877,554.206,76241
546.815,552.121,76171
546.753,550.035,76089
546.69,547.948,76316
546.628,545.861,76343
546.565,543.773,75919
546.503,541.685,75849
546.441,539.597,75955
546.378,537.508,75794
546.316,535.418,75886
546.254,533.328,75712
546.191,531.238,75915
546.129,529.147,75466
546.067,527.056,75689
546.004,524.964,75463
545.942,522.871,75540
545.879,520.778,75274
545.817,518.685,75362
545.755,516.591,74909
545.692,514.497,75398
545.63,512.402,74770
545.568,510.307,74951
545.505,508.211,75089
545.443,506.115,74688
545.38,504.019,74749
545.318,501.922,74771
545.256,499.824,74787
545.193,497.726,74669
545.131,495.627,74799
545.069,493.528,74838
545.006,491.429,74860
544.944,489.329,74833
544.881,487.228,74961
544.819,485.127,74764
544.757,483.026,74839
544.694,480.924,74450
544.632,478.821,74838
544.57,476.718,74703
544.507,474.615,74732
544.445,472.511,74879
544.383,470.407,74824
544.32,468.302,74516
544.258,466.197,74731
544.195,464.091,74666
544.133,461.985,74810
544.071,459.878,74618
544.008,457.771,74770
543.946,455.663,74173
543.884,453.555,74335
543.821,451.446,74709
543.759,449.337,74143
543.696,447.227,74228
543.634,445.117,74136
543.572,443.006,74380
543.509,440.895,73727
543.447,438.784,73913
543.385,436.671,73824
543.322,434.559,74043
543.26,432.446,74143
543.198,430.332,73957
543.135,428.218,73833
543.073,426.104,73590
543.01,423.989,73976
542.948,421.873,74206
542.886,419.757,73891
542.823,417.641,73890
542.761,415.524,73931
542.699,413.407,73764
542.636,411.289,73896
542.574,409.17,74015
542.511,407.051,73827
542.449,404.932,73991
542.387,402.812,73980
542.324,400.692,73795
542.262,398.571,73578
542.2,396.45,73595
542.137,394.328,73508
542.075,392.205,73561
542.012,390.083,73637
541.95,387.959,73690
541.888,385.836,73674
541.825,383.711,73678
541.763,381.587,73167
541.701,379.461,73474
541.638,377.336,73365
541.576,375.209,73384
541.514,373.083,73431
541.451,370.955,73126
541.389,368.828,73366
541.326,366.7,73190
541.264,364.571,73071
541.202,362.442,73165
541.139,360.312,73324
541.077,358.182,73341
541.015,356.051,73205
540.952,353.92,73134
540.89,351.789,73185
540.827,349.657,73021
540.765,347.524,73195
540.703,345.391,72724
540.64,343.257,72674
540.578,341.123,72946
540.516,338.989,72644
540.453,336.854,72598
540.391,334.718,72290
540.328,332.582,72034
540.266,330.445,72118
540.204,328.308,72085
540.141,326.171,72003
540.079,324.033,71917
540.017,321.894,71748
539.954,319.755,72053
539.892,317.616,72100
539.83,315.476,72109
539.767,313.335,71899
539.705,311.194,72132
539.642,309.053,71972
539.58,306.911,72184
539.518,304.768,72115
539.455,302.625,72173
539.393,300.482,72007
539.331,298.338,71692
539.268,296.194,71669
539.206,294.049,71233
539.143,291.903,71120
539.081,289.757,70653
539.019,287.611,70758
538.956,285.464,70164
538.894,283.316,70375
538.832,281.169,70438
538.769,279.02,70282
538.707,276.871,70416
538.644,274.722,70185
538.582,272.572,69975
538.52,270.421,69622
538.457,268.271,68391
538.395,266.119,67123
538.333,263.967,65950
538.27,261.815,64677
538.208,259.662,63628
538.146,257.508,62721
538.083,255.355,61950
538.021,253.2,61704
537.958,251.045,61524
537.896,248.89,61265
537.834,246.734,61086
537.771,244.578,61092
537.709,242.421,60990
537.647,240.263,61015
537.584,238.105,60810
537.522,235.947,60867
537.459,233.788,60857
537.397,231.629,60924
537.335,229.469,60914
537.272,227.308,60995
537.21,225.147,60939
537.148,222.986,60841
537.085,220.824,60823
537.023,218.662,60793
536.96,216.499,60808
536.898,214.335,60805
536.836,212.171,60841
536.773,210.007,60839
536.711,207.842,60905
553.364,768.549,79271
553.301,766.512,79681
553.239,764.475,79853
553.177,762.437,79578
553.114,760.398,79754
553.052,758.359,79809
552.99,756.32,79453
552.927,754.28,79572
552.865,752.24,79415
552.802,750.199,79395
552.74,748.158,79410
552.678,746.116,79393
552.615,744.074,79396
552.553,742.032,79332
552.491,739.989,79213
552.428,737.945,79184
552.366,735.901,79070
552.304,733.857,79361
552.241,731.812,78912
552.179,729.766,79182
552.116,727.721,79101
552.054,725.674,78971
551.992,723.628,79175
551.929,721.58,79410
551.867,719.533,79316
551.805,717.485,79302
551.742,715.436,79057
551.68,713.387,79182
551.617,711.337,78940
551.555,709.287,79263
551.493,707.237,79151
551.43,705.186,79115
551.368,703.135,79013
551.306,701.083,79327
551.243,699.031,79156
551.181,696.978,79074
551.119,694.925,79240
551.056,692.871,79351
550.994,690.817,78895
550.931,688.762,78929
550.869,686.707,78820
550.807,684.651,78848
550.744,682.595,79049
550.682,680.539,78884
550.62,678.482,79135
550.557,676.425,78671
550.495,674.367,79224
550.432,672.308,78966
550.37,670.25,78812
550.308,668.19,78644
550.245,666.131,78840
550.183,664.07,78541
550.121,662.01,78745
550.058,659.948,78849
549.996,657.887,78570
549.933,655.825,78749
549.871,653.762,78663
549.809,651.699,78687
549.746,649.636,78659
549.684,647.572,78666
549.622,645.507,78492
549.559,643.442,78647
549.497,641.377,78759
549.435,639.311,78401
549.372,637.245,78834
549.31,635.178,78616
549.247,633.111,78816
549.185,631.043,78642
549.123,628.975,78664
549.06,626.906,79111
548.998,624.837,78834
548.936,622.768,78555
548.873,620.698,78648
548.811,618.627,78276
548.748,616.556,78553
548.686,614.485,78589
548.624,612.413,78492
548.561,610.34,78021
548.499,608.267,78480
548.437,606.194,78289
548.374,604.12,78031
548.312,602.046,77842
548.249,599.971,77919
548.187,597.896,77635
548.125,595.82,77767
548.062,593.744,77385
548.0,591.667,77552
547.938,589.59,77595
547.875,587.513,76952
547.813,585.434,77443
547.751,583.356,77533
547.688,581.277,76970
547.626,579.197,76715
547.563,577.117,76905
547.501,575.037,76602
547.439,572.956,76912
547.376,570.875,76675
547.314,568.793,76893
547.252,566.71,76513
547.189,564.628,76350
547.127,562.544,76361
547.064,560.461,76887
547.002,558.376,76399
546.94,556.292,76712
546.877,554.206,76359
546.815,552.121,76514
546.753,550.035,76228
546.69,547.948,76306
546.628,545.861,76172
546.565,543.773,76234
546.503,541.685,75946
546.441,539.597,76140
546.378,537.508,75826
546.316,535.418,75809
546.254,533.328,75761
546.191,531.238,75580
546.129,529.147,75785
546.067,527.056,75790
546.004,524.964,75741
545.942,522.871,75490
545.879,520.778,75432
545.817,518.685,75590
545.755,516.591,75306
545.692,514.497,75051
545.63,512.402,75343
545.568,510.307,74882
545.505,508.211,74947
545.443,506.115,74741
545.38,504.019,74921
545.318,501.922,75003
545.256,499.824,74736
545.193,497.726,74947
545.131,495.627,74760
545.069,493.528,74958
545.006,491.429,75016
544.944,489.329,75219
544.881,487.228,74841
544.819,485.127,75068
544.757,483.026,74977
544.694,480.924,74980
544.632,478.821,74839
544.57,476.718,74826
544.507,474.615,74697
544.445,472.511,74802
544.383,470.407,74714
544.32,468.302,74632
544.258,466.197,75043
544.195,464.091,74849
544.133,461.985,74603
544.071,459.878,74913
544.008,457.771,74564
543.946,455.663,74507
543.884,453.555,74247
543.821,451.446,74406
543.759,449.337,74432
543.696,447.227,74263
543.634,445.117,73762
543.572,443.006,74043
543.509,440.895,74272
543.447,438.784,74263
543.385,436.671,73958
543.322,434.559,73867
543.26,432.446,74068
543.198,430.332,74076
543.135,428.218,73748
543.073,426.104,74036
543.01,423.989,74159
542.948,421.873,74137
542.886,419.757,73804
542.823,417.641,73950
542.761,415.524,74130
542.699,413.407,74257
542.636,411.289,74214
542.574,409.17,74260
542.511,407.051,74146
542.449,404.932,73878
542.387,402.812,74001
542.324,400.692,73884
542.262,398.571,73801
542.2,396.45,73891
542.137,394.328,73939
542.075,392.205,74036
542.012,390.083,73823
541.95,387.959,73777
541.888,385.836,73624
541.825,383.711,73577
541.763,381.587,73498
541.701,379.461,73389
541.638,377.336,73046
541.576,375.209,73443
541.514,373.083,73347
541.451,370.955,73166
541.389,368.828,73555
541.326,366.7,73338
541.264,364.571,73477
541.202,362.442,73500
541.139,360.312,73294
541.077,358.182,73325
541.015,356.051,73324
540.952,353.92,73252
540.89,351.789,73124
540.827,349.657,73280
540.765,347.524,73111
540.703,345.391,72896
540.64,343.257,72783
540.578,341.123,72898
540.516,338.989,72651
540.453,336.854,72597
540.391,334.718,72403
540.328,332.582,72315
540.266,330.445,72143
540.204,328.308,72131
540.141,326.171,72189
540.079,324.033,72048
540.017,321.894,72155
539.954,319.755,72009
539.892,317.616,72023
539.83,315.476,72025
539.767,313.335,72100
539.705,311.194,71928
539.642,309.053,72286
539.58,306.911,72112
539.518,304.768,72065
539.455,302.625,72002
539.393,300.482,72249
539.331,298.338,71943
539.268,296.194,71579
539.206,294.049,71382
539.143,291.903,71073
539.081,289.757,70802
539.019,287.611,70723
538.956,285.464,70744
538.894,283.316,70419
538.832,281.169,70317
538.769,279.02,70342
538.707,276.871,70436
538.644,274.722,70380
538.582,272.572,69858
538.52,270.421,69448
538.457,268.271,68529
538.395,266.119,67148
538.333,263.967,65980
538.27,261.815,64684
538.208,259.662,63725
538.146,257.508,62682
538.083,255.355,62157
538.021,253.2,61703
537.958,251.045,61477
537.896,248.89,61231
537.834,246.734,61087
537.771,244.578,61008
537.709,242.421,60946
537.647,240.263,60964
537.584,238.105,60865
537.522,235.947,60984
537.459,233.788,60869
537.397,231.629,60852
537.335,229.469,60744
537.272,227.308,60866
537.21,225.147,60928
537.148,222.986,60840
537.085,220.824,60831
537.023,218.662,60844
536.96,216.499,60807
536.898,214.335,60813
536.836,212.171,60920
536.773,210.007,60888
536.711,207.842,60808
536.661,206.11,60804