File: tomke/20240809_Si_on_TiO2/20240809/raw_data/Si_onTiO2_0mA_30mW_30sec_4acc_545nm_02.txt
Wavelength(nm), Raman shift(cm^-1), Intensity(counts)
553.364,768.549,59879
553.314,766.92,60262
553.264,765.29,60226
553.214,763.659,60130
553.164,762.029,60126
553.114,760.398,60176
553.064,758.767,60141
553.015,757.136,60130
552.965,755.504,60131
552.915,753.872,60168
552.865,752.24,60112
552.815,750.607,60122
552.765,748.974,60152
552.715,747.341,60202
552.665,745.708,60139
552.615,744.074,60088
552.565,742.44,60103
552.516,740.806,60082
552.466,739.171,60156
552.416,737.536,60125
552.366,735.901,60151
552.316,734.266,60119
552.266,732.63,60162
552.216,730.994,60072
552.166,729.357,60080
552.116,727.721,60104
552.067,726.084,60119
552.017,724.446,60125
551.967,722.809,60112
551.917,721.171,60230
551.867,719.533,60114
551.817,717.894,60122
551.767,716.255,60125
551.717,714.616,60070
551.667,712.977,60134
551.617,711.337,60122
551.568,709.697,60090
551.518,708.057,60121
551.468,706.417,60208
551.418,704.776,60141
551.368,703.135,60172
551.318,701.493,60208
551.268,699.852,60215
551.218,698.21,60166
551.168,696.567,60202
551.119,694.925,60116
551.069,693.282,60189
551.019,691.638,60141
550.969,689.995,60095
550.919,688.351,60289
550.869,686.707,60210
550.819,685.063,60216
550.769,683.418,60148
550.719,681.773,60261
550.669,680.128,60292
550.62,678.482,60221
550.57,676.836,60264
550.52,675.19,60293
550.47,673.543,60279
550.42,671.897,60309
550.37,670.25,60337
550.32,668.602,60436
550.27,666.954,60216
550.22,665.306,60233
550.17,663.658,60275
550.121,662.01,60259
550.071,660.361,60289
550.021,658.712,60209
549.971,657.062,60312
549.921,655.412,60330
549.871,653.762,60257
549.821,652.112,60252
549.771,650.461,60266
549.721,648.81,60264
549.672,647.159,60294
549.622,645.507,60284
549.572,643.855,60330
549.522,642.203,60328
549.472,640.551,60330
549.422,638.898,60206
549.372,637.245,60342
549.322,635.592,60360
549.272,633.938,60424
549.222,632.284,61082
549.173,630.63,60430
549.123,628.975,60460
549.073,627.32,60363
549.023,625.665,60317
548.973,624.009,60462
548.923,622.354,60446
548.873,620.698,60322
548.823,619.041,60371
548.773,617.385,60381
548.723,615.728,60315
548.674,614.07,60383
548.624,612.413,60423
548.574,610.755,60193
548.524,609.097,60254
548.474,607.438,60248
548.424,605.779,60308
548.374,604.12,60225
548.324,602.461,60262
548.274,600.801,60245
548.225,599.141,60215
548.175,597.481,60237
548.125,595.82,60203
548.075,594.159,60223
548.025,592.498,60247
547.975,590.837,60154
547.925,589.175,60163
547.875,587.513,60149
547.825,585.85,60158
547.775,584.187,60095
547.726,582.524,60059
547.676,580.861,60204
547.626,579.197,60200
547.576,577.533,60205
547.526,575.869,60191
547.476,574.205,60243
547.426,572.54,60179
547.376,570.875,60138
547.326,569.209,60228
547.277,567.543,60258
547.227,565.877,60182
547.177,564.211,60294
547.127,562.544,60268
547.077,560.877,60243
547.027,559.21,60147
546.977,557.543,60285
546.927,555.875,60322
546.877,554.206,60384
546.827,552.538,60374
546.778,550.869,60396
546.728,549.2,60500
546.678,547.531,60505
546.628,545.861,60480
546.578,544.191,60525
546.528,542.521,60680
546.478,540.85,60876
546.428,539.179,60842
546.378,537.508,61085
546.328,535.836,61168
546.279,534.164,61492
546.229,532.492,61836
546.179,530.82,62551
546.129,529.147,63899
546.079,527.474,66668
546.029,525.8,74461
545.979,524.127,95162
545.929,522.453,116833
545.879,520.778,116124
545.83,519.104,95298
545.78,517.429,79823
545.73,515.754,70368
545.68,514.078,65403
545.63,512.402,63309
545.58,510.726,62250
545.53,509.05,61710
545.48,507.373,61325
545.43,505.696,61180
545.38,504.019,60972
545.331,502.341,60826
545.281,500.663,60803
545.231,498.985,60608
545.181,497.306,60635
545.131,495.627,60619
545.081,493.948,60496
545.031,492.268,60445
544.981,490.589,60416
544.931,488.909,60425
544.881,487.228,60461
544.832,485.547,60361
544.782,483.866,60411
544.732,482.185,60340
544.682,480.503,60272
544.632,478.821,60331
544.582,477.139,60358
544.532,475.456,60230
544.482,473.774,60295
544.432,472.09,60197
544.383,470.407,60248
544.333,468.723,60200
544.283,467.039,60201
544.233,465.354,60187
544.183,463.67,60211
544.133,461.985,60208
544.083,460.299,60184
544.033,458.614,60292
543.983,456.928,60144
543.933,455.241,60246
543.884,453.555,60268
543.834,451.868,60226
543.784,450.18,60260
543.734,448.493,60244
543.684,446.805,60243
543.634,445.117,60306
543.584,443.428,60255
543.534,441.74,60373
543.484,440.051,60374
543.435,438.361,60409
543.385,436.671,60452
543.335,434.981,60387
543.285,433.291,60522
543.235,431.601,60476
543.185,429.91,60378
543.135,428.218,60403
543.085,426.527,60434
543.035,424.835,60448
542.985,423.143,60378
542.936,421.45,60366
542.886,419.757,60522
542.836,418.064,60267
542.786,416.371,60410
542.736,414.677,60362
542.686,412.983,60465
542.636,411.289,60318
542.586,409.594,60358
542.536,407.899,60452
542.486,406.204,60450
542.437,404.508,60428
542.387,402.812,60476
542.337,401.116,60456
542.287,399.419,60462
542.237,397.722,60480
542.187,396.025,60448
542.137,394.328,60505
542.087,392.63,60466
542.037,390.932,60482
541.988,389.233,60404
541.938,387.535,60506
541.888,385.836,60433
541.838,384.136,60378
541.788,382.437,60460
541.738,380.737,60447
541.688,379.036,60365
541.638,377.336,60335
541.588,375.635,60440
541.538,373.933,60505
541.489,372.232,60388
541.439,370.53,60361
541.389,368.828,60453
541.339,367.125,60460
541.289,365.422,60470
541.239,363.719,60495
541.189,362.016,60529
541.139,360.312,60453
541.089,358.608,60427
541.04,356.904,60485
540.99,355.199,60595
540.94,353.494,60475
540.89,351.789,60589
540.84,350.083,60432
540.79,348.377,60516
540.74,346.671,60510
540.69,344.964,60521
540.64,343.257,60509
540.59,341.55,60550
540.541,339.842,60464
540.491,338.135,60585
540.441,336.426,60689
540.391,334.718,60693
540.341,333.009,60633
540.291,331.3,60773
540.241,329.591,60772
540.191,327.881,60696
540.141,326.171,60812
540.091,324.46,60895
540.042,322.75,61051
539.992,321.039,60958
539.942,319.327,60823
539.892,317.616,60790
539.842,315.904,60799
539.792,314.192,60757
539.742,312.479,60807
539.692,310.766,60787
539.642,309.053,60838
539.593,307.339,60982
539.543,305.625,60934
539.493,303.911,61104
539.443,302.197,61325
539.393,300.482,61183
539.343,298.767,61176
539.293,297.051,60942
539.243,295.336,60824
539.193,293.62,60899
539.143,291.903,60740
539.094,290.186,60806
539.044,288.469,60827
538.994,286.752,60699
538.944,285.034,60689
538.894,283.316,60749
538.844,281.598,60717
538.794,279.88,60788
538.744,278.161,60664
538.694,276.441,60680
538.644,274.722,60724
538.595,273.002,60842
538.545,271.282,60809
538.495,269.561,60803
538.445,267.84,60779
538.395,266.119,60646
538.345,264.398,60628
538.295,262.676,60472
538.245,260.954,60458
538.195,259.231,60210
538.146,257.508,60168
538.096,255.785,60140
538.046,254.062,60155
537.996,252.338,60128
537.946,250.614,60014
537.896,248.89,60054
537.846,247.165,59961
537.796,245.44,60007
537.746,243.715,60026
537.696,241.989,60042
537.647,240.263,60082
537.597,238.537,59941
537.547,236.81,59961
537.497,235.083,59985
537.447,233.356,59923
537.397,231.629,59985
537.347,229.901,59982
537.297,228.172,59982
537.247,226.444,59967
537.198,224.715,59943
537.148,222.986,59923
537.098,221.256,59959
537.048,219.527,59969
536.998,217.796,59995
536.948,216.066,59997
536.898,214.335,60033
536.848,212.604,60007
536.798,210.873,59945
536.748,209.141,60017
536.699,207.409,60021
553.364,768.549,59834
553.314,766.92,60145
553.264,765.29,60171
553.214,763.659,60127
553.164,762.029,60170
553.114,760.398,60189
553.064,758.767,60160
553.015,757.136,60104
552.965,755.504,60094
552.915,753.872,60106
552.865,752.24,60121
552.815,750.607,60039
552.765,748.974,60179
552.715,747.341,60123
552.665,745.708,60063
552.615,744.074,60144
552.565,742.44,60114
552.516,740.806,60063
552.466,739.171,60133
552.416,737.536,60143
552.366,735.901,60099
552.316,734.266,60133
552.266,732.63,60166
552.216,730.994,60103
552.166,729.357,60192
552.116,727.721,60088
552.067,726.084,60126
552.017,724.446,60108
551.967,722.809,60131
551.917,721.171,60142
551.867,719.533,60111
551.817,717.894,60141
551.767,716.255,60156
551.717,714.616,60098
551.667,712.977,60202
551.617,711.337,60114
551.568,709.697,60170
551.518,708.057,60133
551.468,706.417,60107
551.418,704.776,60145
551.368,703.135,60187
551.318,701.493,60232
551.268,699.852,60162
551.218,698.21,60182
551.168,696.567,60261
551.119,694.925,60271
551.069,693.282,60238
551.019,691.638,60194
550.969,689.995,60165
550.919,688.351,60291
550.869,686.707,60232
550.819,685.063,60219
550.769,683.418,60215
550.719,681.773,60285
550.669,680.128,60259
550.62,678.482,60195
550.57,676.836,60313
550.52,675.19,60292
550.47,673.543,60296
550.42,671.897,60332
550.37,670.25,60305
550.32,668.602,60324
550.27,666.954,60280
550.22,665.306,60194
550.17,663.658,60305
550.121,662.01,60266
550.071,660.361,60289
550.021,658.712,60265
549.971,657.062,60195
549.921,655.412,60249
549.871,653.762,60327
549.821,652.112,60281
549.771,650.461,60247
549.721,648.81,60249
549.672,647.159,60293
549.622,645.507,60271
549.572,643.855,60284
549.522,642.203,60372
549.472,640.551,60356
549.422,638.898,60334
549.372,637.245,60380
549.322,635.592,60434
549.272,633.938,60360
549.222,632.284,60435
549.173,630.63,60429
549.123,628.975,60394
549.073,627.32,60401
549.023,625.665,60403
548.973,624.009,60421
548.923,622.354,60470
548.873,620.698,60394
548.823,619.041,60376
548.773,617.385,60401
548.723,615.728,60263
548.674,614.07,60282
548.624,612.413,60304
548.574,610.755,60336
548.524,609.097,60300
548.474,607.438,60218
548.424,605.779,60261
548.374,604.12,60244
548.324,602.461,60160
548.274,600.801,60232
548.225,599.141,60230
548.175,597.481,60222
548.125,595.82,60236
548.075,594.159,60284
548.025,592.498,60166
547.975,590.837,60214
547.925,589.175,60187
547.875,587.513,60250
547.825,585.85,60232
547.775,584.187,60171
547.726,582.524,60227
547.676,580.861,60159
547.626,579.197,60164
547.576,577.533,60164
547.526,575.869,60190
547.476,574.205,60139
547.426,572.54,60304
547.376,570.875,60221
547.326,569.209,60251
547.277,567.543,60263
547.227,565.877,60196
547.177,564.211,60181
547.127,562.544,60186
547.077,560.877,60327
547.027,559.21,60338
546.977,557.543,60272
546.927,555.875,60308
546.877,554.206,60392
546.827,552.538,60385
546.778,550.869,60364
546.728,549.2,60486
546.678,547.531,60439
546.628,545.861,60564
546.578,544.191,60679
546.528,542.521,60739
546.478,540.85,60648
546.428,539.179,60824
546.378,537.508,61069
546.328,535.836,61344
546.279,534.164,61476
546.229,532.492,61964
546.179,530.82,62557
546.129,529.147,63892
546.079,527.474,66774
546.029,525.8,74448
545.979,524.127,95079
545.929,522.453,115806
545.879,520.778,115970
545.83,519.104,95865
545.78,517.429,79699
545.73,515.754,70503
545.68,514.078,65559
545.63,512.402,63479
545.58,510.726,62219
545.53,509.05,61551
545.48,507.373,61304
545.43,505.696,61066
545.38,504.019,60848
545.331,502.341,60920
545.281,500.663,60739
545.231,498.985,60729
545.181,497.306,60789
545.131,495.627,60558
545.081,493.948,60563
545.031,492.268,60492
544.981,490.589,60433
544.931,488.909,60448
544.881,487.228,60395
544.832,485.547,60375
544.782,483.866,60310
544.732,482.185,60352
544.682,480.503,60283
544.632,478.821,60238
544.582,477.139,60245
544.532,475.456,60276
544.482,473.774,60318
544.432,472.09,60272
544.383,470.407,60309
544.333,468.723,60321
544.283,467.039,60231
544.233,465.354,60218
544.183,463.67,60261
544.133,461.985,60175
544.083,460.299,60160
544.033,458.614,60174
543.983,456.928,60189
543.933,455.241,60265
543.884,453.555,60268
543.834,451.868,60261
543.784,450.18,60227
543.734,448.493,60337
543.684,446.805,60294
543.634,445.117,60245
543.584,443.428,60276
543.534,441.74,60387
543.484,440.051,60385
543.435,438.361,60405
543.385,436.671,60429
543.335,434.981,60455
543.285,433.291,60310
543.235,431.601,60449
543.185,429.91,60328
543.135,428.218,60427
543.085,426.527,60383
543.035,424.835,60358
542.985,423.143,60360
542.936,421.45,60263
542.886,419.757,60470
542.836,418.064,60369
542.786,416.371,60357
542.736,414.677,60352
542.686,412.983,60442
542.636,411.289,60346
542.586,409.594,60364
542.536,407.899,60363
542.486,406.204,60399
542.437,404.508,60404
542.387,402.812,60440
542.337,401.116,60413
542.287,399.419,60495
542.237,397.722,60433
542.187,396.025,60480
542.137,394.328,60528
542.087,392.63,60541
542.037,390.932,60498
541.988,389.233,60453
541.938,387.535,60508
541.888,385.836,60546
541.838,384.136,60337
541.788,382.437,60519
541.738,380.737,60431
541.688,379.036,60375
541.638,377.336,60437
541.588,375.635,60440
541.538,373.933,60438
541.489,372.232,60433
541.439,370.53,60357
541.389,368.828,60376
541.339,367.125,60448
541.289,365.422,60451
541.239,363.719,60421
541.189,362.016,60353
541.139,360.312,60405
541.089,358.608,60484
541.04,356.904,60501
540.99,355.199,60456
540.94,353.494,60512
540.89,351.789,60433
540.84,350.083,60488
540.79,348.377,60583
540.74,346.671,60617
540.69,344.964,60488
540.64,343.257,60620
540.59,341.55,60581
540.541,339.842,60640
540.491,338.135,60568
540.441,336.426,60630
540.391,334.718,60543
540.341,333.009,60725
540.291,331.3,60739
540.241,329.591,60785
540.191,327.881,60893
540.141,326.171,60902
540.091,324.46,60974
540.042,322.75,60901
539.992,321.039,60942
539.942,319.327,60765
539.892,317.616,60874
539.842,315.904,60813
539.792,314.192,60723
539.742,312.479,60707
539.692,310.766,60847
539.642,309.053,60887
539.593,307.339,60942
539.543,305.625,61024
539.493,303.911,61067
539.443,302.197,61155
539.393,300.482,61013
539.343,298.767,61071
539.293,297.051,60930
539.243,295.336,61020
539.193,293.62,60844
539.143,291.903,60785
539.094,290.186,60863
539.044,288.469,60790
538.994,286.752,60731
538.944,285.034,60734
538.894,283.316,60774
538.844,281.598,60722
538.794,279.88,60736
538.744,278.161,60682
538.694,276.441,60769
538.644,274.722,60669
538.595,273.002,60827
538.545,271.282,60882
538.495,269.561,60855
538.445,267.84,60835
538.395,266.119,60752
538.345,264.398,60541
538.295,262.676,60456
538.245,260.954,60370
538.195,259.231,60317
538.146,257.508,60207
538.096,255.785,60068
538.046,254.062,60153
537.996,252.338,60116
537.946,250.614,60086
537.896,248.89,60016
537.846,247.165,60017
537.796,245.44,60012
537.746,243.715,60029
537.696,241.989,60000
537.647,240.263,59992
537.597,238.537,60057
537.547,236.81,60062
537.497,235.083,59980
537.447,233.356,59959
537.397,231.629,59999
537.347,229.901,59982
537.297,228.172,60033
537.247,226.444,59998
537.198,224.715,60011
537.148,222.986,60006
537.098,221.256,60025
537.048,219.527,60025
536.998,217.796,59930
536.948,216.066,60035
536.898,214.335,60001
536.848,212.604,59982
536.798,210.873,60008
536.748,209.141,59958
536.699,207.409,60039
553.364,768.549,59878
553.314,766.92,60183
553.264,765.29,60190
553.214,763.659,60137
553.164,762.029,60221
553.114,760.398,60093
553.064,758.767,60215
553.015,757.136,60160
552.965,755.504,60135
552.915,753.872,60208
552.865,752.24,60128
552.815,750.607,60151
552.765,748.974,60106
552.715,747.341,60155
552.665,745.708,60083
552.615,744.074,60115
552.565,742.44,60180
552.516,740.806,60263
552.466,739.171,60042
552.416,737.536,60137
552.366,735.901,60068
552.316,734.266,60048
552.266,732.63,60160
552.216,730.994,60125
552.166,729.357,60119
552.116,727.721,60136
552.067,726.084,60145
552.017,724.446,60113
551.967,722.809,60098
551.917,721.171,60111
551.867,719.533,60130
551.817,717.894,60154
551.767,716.255,60127
551.717,714.616,60154
551.667,712.977,60212
551.617,711.337,60122
551.568,709.697,60145
551.518,708.057,60175
551.468,706.417,60106
551.418,704.776,60131
551.368,703.135,60178
551.318,701.493,60199
551.268,699.852,60184
551.218,698.21,60231
551.168,696.567,60135
551.119,694.925,60152
551.069,693.282,60264
551.019,691.638,60183
550.969,689.995,60138
550.919,688.351,60213
550.869,686.707,60188
550.819,685.063,60205
550.769,683.418,60214
550.719,681.773,60244
550.669,680.128,60272
550.62,678.482,60284
550.57,676.836,60307
550.52,675.19,60340
550.47,673.543,60259
550.42,671.897,60269
550.37,670.25,60210
550.32,668.602,60247
550.27,666.954,60246
550.22,665.306,60208
550.17,663.658,60279
550.121,662.01,60236
550.071,660.361,60276
550.021,658.712,60235
549.971,657.062,60193
549.921,655.412,60254
549.871,653.762,60356
549.821,652.112,60313
549.771,650.461,60303
549.721,648.81,60326
549.672,647.159,60360
549.622,645.507,60385
549.572,643.855,60342
549.522,642.203,60339
549.472,640.551,60352
549.422,638.898,60280
549.372,637.245,60256
549.322,635.592,60309
549.272,633.938,60414
549.222,632.284,60362
549.173,630.63,60342
549.123,628.975,60373
549.073,627.32,60388
549.023,625.665,60435
548.973,624.009,60427
548.923,622.354,60356
548.873,620.698,60392
548.823,619.041,60376
548.773,617.385,60300
548.723,615.728,60324
548.674,614.07,60292
548.624,612.413,60246
548.574,610.755,60329
548.524,609.097,60259
548.474,607.438,60256
548.424,605.779,60263
548.374,604.12,60267
548.324,602.461,60182
548.274,600.801,60156
548.225,599.141,60227
548.175,597.481,60224
548.125,595.82,60222
548.075,594.159,60243
548.025,592.498,60271
547.975,590.837,60281
547.925,589.175,60158
547.875,587.513,60259
547.825,585.85,60218
547.775,584.187,60166
547.726,582.524,60143
547.676,580.861,60226
547.626,579.197,60294
547.576,577.533,63361
547.526,575.869,60233
547.476,574.205,60170
547.426,572.54,60172
547.376,570.875,60217
547.326,569.209,60107
547.277,567.543,60214
547.227,565.877,60289
547.177,564.211,60162
547.127,562.544,60210
547.077,560.877,60275
547.027,559.21,60294
546.977,557.543,60322
546.927,555.875,60237
546.877,554.206,60297
546.827,552.538,60416
546.778,550.869,60406
546.728,549.2,60475
546.678,547.531,60523
546.628,545.861,60505
546.578,544.191,60630
546.528,542.521,60733
546.478,540.85,60768
546.428,539.179,60830
546.378,537.508,60982
546.328,535.836,61196
546.279,534.164,61541
546.229,532.492,61808
546.179,530.82,62673
546.129,529.147,63935
546.079,527.474,66779
546.029,525.8,74307
545.979,524.127,95573
545.929,522.453,115988
545.879,520.778,115822
545.83,519.104,95927
545.78,517.429,79701
545.73,515.754,70566
545.68,514.078,65506
545.63,512.402,63307
545.58,510.726,62376
545.53,509.05,61805
545.48,507.373,61391
545.43,505.696,61206
545.38,504.019,61055
545.331,502.341,60866
545.281,500.663,60762
545.231,498.985,60656
545.181,497.306,60569
545.131,495.627,60582
545.081,493.948,60525
545.031,492.268,60577
544.981,490.589,60409
544.931,488.909,60456
544.881,487.228,60377
544.832,485.547,60396
544.782,483.866,60428
544.732,482.185,60372
544.682,480.503,60327
544.632,478.821,60403
544.582,477.139,60281
544.532,475.456,60358
544.482,473.774,60274
544.432,472.09,60203
544.383,470.407,60278
544.333,468.723,60245
544.283,467.039,60243
544.233,465.354,60190
544.183,463.67,60272
544.133,461.985,60228
544.083,460.299,60278
544.033,458.614,60214
543.983,456.928,60108
543.933,455.241,60305
543.884,453.555,60269
543.834,451.868,60352
543.784,450.18,60233
543.734,448.493,60229
543.684,446.805,60302
543.634,445.117,60325
543.584,443.428,60242
543.534,441.74,60292
543.484,440.051,60428
543.435,438.361,60365
543.385,436.671,60433
543.335,434.981,60398
543.285,433.291,60375
543.235,431.601,60456
543.185,429.91,60439
543.135,428.218,60368
543.085,426.527,60406
543.035,424.835,60368
542.985,423.143,60417
542.936,421.45,60501
542.886,419.757,60373
542.836,418.064,60361
542.786,416.371,60381
542.736,414.677,60385
542.686,412.983,60438
542.636,411.289,60464
542.586,409.594,60331
542.536,407.899,60345
542.486,406.204,60391
542.437,404.508,60305
542.387,402.812,60331
542.337,401.116,60427
542.287,399.419,60293
542.237,397.722,60419
542.187,396.025,60435
542.137,394.328,60381
542.087,392.63,60502
542.037,390.932,60565
541.988,389.233,60376
541.938,387.535,60520
541.888,385.836,60373
541.838,384.136,60364
541.788,382.437,60374
541.738,380.737,60365
541.688,379.036,60382
541.638,377.336,60466
541.588,375.635,60441
541.538,373.933,60486
541.489,372.232,60422
541.439,370.53,60346
541.389,368.828,60454
541.339,367.125,60524
541.289,365.422,60527
541.239,363.719,60441
541.189,362.016,60464
541.139,360.312,60545
541.089,358.608,60492
541.04,356.904,60461
540.99,355.199,60557
540.94,353.494,60601
540.89,351.789,60520
540.84,350.083,60449
540.79,348.377,60520
540.74,346.671,60477
540.69,344.964,60579
540.64,343.257,60638
540.59,341.55,60631
540.541,339.842,60604
540.491,338.135,60616
540.441,336.426,60696
540.391,334.718,60654
540.341,333.009,60616
540.291,331.3,60588
540.241,329.591,60676
540.191,327.881,60791
540.141,326.171,60867
540.091,324.46,60956
540.042,322.75,61013
539.992,321.039,61009
539.942,319.327,60879
539.892,317.616,60792
539.842,315.904,60859
539.792,314.192,60785
539.742,312.479,60807
539.692,310.766,60897
539.642,309.053,60877
539.593,307.339,60883
539.543,305.625,61011
539.493,303.911,61069
539.443,302.197,61218
539.393,300.482,61164
539.343,298.767,61053
539.293,297.051,61032
539.243,295.336,60941
539.193,293.62,60878
539.143,291.903,60814
539.094,290.186,60780
539.044,288.469,60799
538.994,286.752,60751
538.944,285.034,60740
538.894,283.316,60610
538.844,281.598,60627
538.794,279.88,60757
538.744,278.161,60749
538.694,276.441,60686
538.644,274.722,60774
538.595,273.002,60818
538.545,271.282,60842
538.495,269.561,60763
538.445,267.84,60858
538.395,266.119,60754
538.345,264.398,60539
538.295,262.676,60510
538.245,260.954,60435
538.195,259.231,60321
538.146,257.508,60294
538.096,255.785,60203
538.046,254.062,60074
537.996,252.338,60150
537.946,250.614,60156
537.896,248.89,60096
537.846,247.165,60016
537.796,245.44,60089
537.746,243.715,59980
537.696,241.989,60023
537.647,240.263,60048
537.597,238.537,60011
537.547,236.81,60053
537.497,235.083,60089
537.447,233.356,60119
537.397,231.629,59973
537.347,229.901,59997
537.297,228.172,60038
537.247,226.444,60045
537.198,224.715,60032
537.148,222.986,60136
537.098,221.256,60087
537.048,219.527,59985
536.998,217.796,60041
536.948,216.066,60034
536.898,214.335,59971
536.848,212.604,59955
536.798,210.873,59986
536.748,209.141,60028
536.699,207.409,59921
553.364,768.549,59804
553.314,766.92,60283
553.264,765.29,60199
553.214,763.659,60154
553.164,762.029,60149
553.114,760.398,60182
553.064,758.767,60138
553.015,757.136,60142
552.965,755.504,60148
552.915,753.872,60133
552.865,752.24,60189
552.815,750.607,60148
552.765,748.974,60156
552.715,747.341,60137
552.665,745.708,60151
552.615,744.074,60070
552.565,742.44,60124
552.516,740.806,60103
552.466,739.171,60124
552.416,737.536,60237
552.366,735.901,60125
552.316,734.266,60142
552.266,732.63,60069
552.216,730.994,60110
552.166,729.357,60086
552.116,727.721,60175
552.067,726.084,60151
552.017,724.446,60197
551.967,722.809,60119
551.917,721.171,60118
551.867,719.533,60207
551.817,717.894,60133
551.767,716.255,60159
551.717,714.616,60165
551.667,712.977,60195
551.617,711.337,60151
551.568,709.697,60165
551.518,708.057,60201
551.468,706.417,60136
551.418,704.776,60174
551.368,703.135,60251
551.318,701.493,60176
551.268,699.852,60245
551.218,698.21,60182
551.168,696.567,60207
551.119,694.925,60124
551.069,693.282,60242
551.019,691.638,60218
550.969,689.995,60223
550.919,688.351,60147
550.869,686.707,60189
550.819,685.063,60263
550.769,683.418,60260
550.719,681.773,60272
550.669,680.128,60234
550.62,678.482,60298
550.57,676.836,60361
550.52,675.19,60230
550.47,673.543,60227
550.42,671.897,60329
550.37,670.25,60301
550.32,668.602,60269
550.27,666.954,60237
550.22,665.306,60292
550.17,663.658,60266
550.121,662.01,60272
550.071,660.361,60328
550.021,658.712,60236
549.971,657.062,60199
549.921,655.412,60325
549.871,653.762,60279
549.821,652.112,60338
549.771,650.461,60202
549.721,648.81,60287
549.672,647.159,60274
549.622,645.507,60273
549.572,643.855,60304
549.522,642.203,60363
549.472,640.551,60329
549.422,638.898,60319
549.372,637.245,60351
549.322,635.592,60399
549.272,633.938,60479
549.222,632.284,60500
549.173,630.63,60368
549.123,628.975,60397
549.073,627.32,60422
549.023,625.665,60372
548.973,624.009,60390
548.923,622.354,60381
548.873,620.698,60431
548.823,619.041,60352
548.773,617.385,60423
548.723,615.728,60418
548.674,614.07,60231
548.624,612.413,60305
548.574,610.755,60202
548.524,609.097,60345
548.474,607.438,60307
548.424,605.779,60252
548.374,604.12,60198
548.324,602.461,60244
548.274,600.801,60273
548.225,599.141,60275
548.175,597.481,60294
548.125,595.82,60303
548.075,594.159,60247
548.025,592.498,60225
547.975,590.837,60235
547.925,589.175,60213
547.875,587.513,60215
547.825,585.85,60222
547.775,584.187,60214
547.726,582.524,60114
547.676,580.861,60194
547.626,579.197,60227
547.576,577.533,60175
547.526,575.869,60237
547.476,574.205,60307
547.426,572.54,60274
547.376,570.875,60135
547.326,569.209,60168
547.277,567.543,60239
547.227,565.877,60289
547.177,564.211,60255
547.127,562.544,60266
547.077,560.877,60272
547.027,559.21,60228
546.977,557.543,60286
546.927,555.875,60270
546.877,554.206,60310
546.827,552.538,60276
546.778,550.869,60389
546.728,549.2,60462
546.678,547.531,60553
546.628,545.861,60634
546.578,544.191,60643
546.528,542.521,60685
546.478,540.85,60747
546.428,539.179,60892
546.378,537.508,61069
546.328,535.836,61177
546.279,534.164,61545
546.229,532.492,61980
546.179,530.82,62517
546.129,529.147,63863
546.079,527.474,66819
546.029,525.8,74716
545.979,524.127,95458
545.929,522.453,116406
545.879,520.778,115775
545.83,519.104,95884
545.78,517.429,79680
545.73,515.754,70418
545.68,514.078,65529
545.63,512.402,63268
545.58,510.726,62400
545.53,509.05,61721
545.48,507.373,61351
545.43,505.696,61219
545.38,504.019,60966
545.331,502.341,60882
545.281,500.663,60777
545.231,498.985,60628
545.181,497.306,60581
545.131,495.627,60544
545.081,493.948,60627
545.031,492.268,60543
544.981,490.589,60518
544.931,488.909,60442
544.881,487.228,60491
544.832,485.547,60394
544.782,483.866,60357
544.732,482.185,60349
544.682,480.503,60299
544.632,478.821,60306
544.582,477.139,60309
544.532,475.456,60207
544.482,473.774,60313
544.432,472.09,60231
544.383,470.407,60274
544.333,468.723,60183
544.283,467.039,60183
544.233,465.354,60218
544.183,463.67,60211
544.133,461.985,60181
544.083,460.299,60185
544.033,458.614,60116
543.983,456.928,60144
543.933,455.241,60105
543.884,453.555,60235
543.834,451.868,60302
543.784,450.18,60301
543.734,448.493,60294
543.684,446.805,60275
543.634,445.117,60274
543.584,443.428,60401
543.534,441.74,60322
543.484,440.051,60387
543.435,438.361,60448
543.385,436.671,60362
543.335,434.981,60398
543.285,433.291,60460
543.235,431.601,60427
543.185,429.91,60397
543.135,428.218,60427
543.085,426.527,60300
543.035,424.835,60404
542.985,423.143,60330
542.936,421.45,60370
542.886,419.757,60446
542.836,418.064,60436
542.786,416.371,60403
542.736,414.677,60319
542.686,412.983,60377
542.636,411.289,60343
542.586,409.594,60380
542.536,407.899,60420
542.486,406.204,60326
542.437,404.508,60425
542.387,402.812,60411
542.337,401.116,60381
542.287,399.419,60453
542.237,397.722,60398
542.187,396.025,60472
542.137,394.328,60458
542.087,392.63,60443
542.037,390.932,60489
541.988,389.233,60455
541.938,387.535,60457
541.888,385.836,60352
541.838,384.136,60305
541.788,382.437,60452
541.738,380.737,60467
541.688,379.036,60434
541.638,377.336,60397
541.588,375.635,60375
541.538,373.933,60415
541.489,372.232,60394
541.439,370.53,60502
541.389,368.828,60457
541.339,367.125,60382
541.289,365.422,60415
541.239,363.719,60460
541.189,362.016,60467
541.139,360.312,60436
541.089,358.608,60434
541.04,356.904,60497
540.99,355.199,60498
540.94,353.494,60596
540.89,351.789,60498
540.84,350.083,60504
540.79,348.377,60433
540.74,346.671,60602
540.69,344.964,60530
540.64,343.257,60550
540.59,341.55,60584
540.541,339.842,60590
540.491,338.135,60561
540.441,336.426,60510
540.391,334.718,60593
540.341,333.009,60569
540.291,331.3,60715
540.241,329.591,60731
540.191,327.881,60916
540.141,326.171,60810
540.091,324.46,60929
540.042,322.75,60950
539.992,321.039,60909
539.942,319.327,60806
539.892,317.616,60848
539.842,315.904,60782
539.792,314.192,60852
539.742,312.479,60827
539.692,310.766,60812
539.642,309.053,60873
539.593,307.339,60949
539.543,305.625,61004
539.493,303.911,61158
539.443,302.197,61203
539.393,300.482,61005
539.343,298.767,61130
539.293,297.051,60956
539.243,295.336,61021
539.193,293.62,60893
539.143,291.903,60687
539.094,290.186,60812
539.044,288.469,60712
538.994,286.752,60783
538.944,285.034,60727
538.894,283.316,60670
538.844,281.598,60639
538.794,279.88,60653
538.744,278.161,60713
538.694,276.441,60709
538.644,274.722,60645
538.595,273.002,60865
538.545,271.282,60898
538.495,269.561,60813
538.445,267.84,60857
538.395,266.119,60632
538.345,264.398,60599
538.295,262.676,60457
538.245,260.954,60323
538.195,259.231,60285
538.146,257.508,60169
538.096,255.785,60254
538.046,254.062,60134
537.996,252.338,59982
537.946,250.614,60117
537.896,248.89,60073
537.846,247.165,60010
537.796,245.44,60101
537.746,243.715,60044
537.696,241.989,59977
537.647,240.263,60006
537.597,238.537,60014
537.547,236.81,59978
537.497,235.083,59923
537.447,233.356,59983
537.397,231.629,59944
537.347,229.901,59942
537.297,228.172,60008
537.247,226.444,59977
537.198,224.715,60027
537.148,222.986,59976
537.098,221.256,60050
537.048,219.527,60061
536.998,217.796,60004
536.948,216.066,60030
536.898,214.335,60029
536.848,212.604,59969
536.798,210.873,59992
536.748,209.141,59930
536.699,207.409,60010
536.661,206.11,59977