File: tomke/20240809_Si_on_TiO2/20240809/raw_data/Si_onTiO2_60mA_30mW_30sec_5acc_545nm.txt
Wavelength(nm), Raman shift(cm^-1), Intensity(counts)
553.364,768.549,96485
553.301,766.512,97300
553.239,764.475,96627
553.177,762.437,96576
553.114,760.398,96893
553.052,758.359,96684
552.99,756.32,96871
552.927,754.28,97298
552.865,752.24,95987
552.802,750.199,96704
552.74,748.158,96725
552.678,746.116,96280
552.615,744.074,96502
552.553,742.032,96160
552.491,739.989,95964
552.428,737.945,96477
552.366,735.901,96296
552.304,733.857,96087
552.241,731.812,96446
552.179,729.766,95715
552.116,727.721,96019
552.054,725.674,96000
551.992,723.628,95715
551.929,721.58,96038
551.867,719.533,96168
551.805,717.485,95993
551.742,715.436,95996
551.68,713.387,95898
551.617,711.337,96019
551.555,709.287,96140
551.493,707.237,95435
551.43,705.186,95889
551.368,703.135,95756
551.306,701.083,96060
551.243,699.031,96120
551.181,696.978,95654
551.119,694.925,96051
551.056,692.871,95317
550.994,690.817,96168
550.931,688.762,96059
550.869,686.707,95700
550.807,684.651,95362
550.744,682.595,95734
550.682,680.539,95760
550.62,678.482,95673
550.557,676.425,95834
550.495,674.367,95509
550.432,672.308,95216
550.37,670.25,95635
550.308,668.19,95441
550.245,666.131,95208
550.183,664.07,95234
550.121,662.01,94882
550.058,659.948,94529
549.996,657.887,94925
549.933,655.825,95126
549.871,653.762,94902
549.809,651.699,95516
549.746,649.636,95108
549.684,647.572,95356
549.622,645.507,94840
549.559,643.442,95121
549.497,641.377,94682
549.435,639.311,94863
549.372,637.245,95285
549.31,635.178,94912
549.247,633.111,94498
549.185,631.043,95202
549.123,628.975,94692
549.06,626.906,94797
548.998,624.837,95075
548.936,622.768,94910
548.873,620.698,94918
548.811,618.627,94528
548.748,616.556,94591
548.686,614.485,94767
548.624,612.413,94980
548.561,610.34,94387
548.499,608.267,94457
548.437,606.194,94104
548.374,604.12,94139
548.312,602.046,93734
548.249,599.971,94088
548.187,597.896,93578
548.125,595.82,93516
548.062,593.744,93070
548.0,591.667,93111
547.938,589.59,93248
547.875,587.513,92886
547.813,585.434,92307
547.751,583.356,92659
547.688,581.277,92546
547.626,579.197,92562
547.563,577.117,92468
547.501,575.037,92388
547.439,572.956,92237
547.376,570.875,92331
547.314,568.793,91836
547.252,566.71,91812
547.189,564.628,92260
547.127,562.544,91951
547.064,560.461,91790
547.002,558.376,91387
546.94,556.292,91935
546.877,554.206,91336
546.815,552.121,91636
546.753,550.035,91216
546.69,547.948,91401
546.628,545.861,91431
546.565,543.773,91136
546.503,541.685,91215
546.441,539.597,91239
546.378,537.508,90928
546.316,535.418,91166
546.254,533.328,90908
546.191,531.238,90922
546.129,529.147,90873
546.067,527.056,91100
546.004,524.964,90920
545.942,522.871,91252
545.879,520.778,91525
545.817,518.685,91303
545.755,516.591,91699
545.692,514.497,92349
545.63,512.402,93439
545.568,510.307,94734
545.505,508.211,97454
545.443,506.115,100441
545.38,504.019,102525
545.318,501.922,103972
545.256,499.824,102805
545.193,497.726,100241
545.131,495.627,97444
545.069,493.528,95225
545.006,491.429,94069
544.944,489.329,92693
544.881,487.228,92203
544.819,485.127,91307
544.757,483.026,90955
544.694,480.924,91002
544.632,478.821,90614
544.57,476.718,90384
544.507,474.615,90259
544.445,472.511,90202
544.383,470.407,89947
544.32,468.302,90068
544.258,466.197,89910
544.195,464.091,89293
544.133,461.985,89592
544.071,459.878,89056
544.008,457.771,89279
543.946,455.663,88913
543.884,453.555,89081
543.821,451.446,88766
543.759,449.337,88924
543.696,447.227,88310
543.634,445.117,88422
543.572,443.006,88363
543.509,440.895,87833
543.447,438.784,88068
543.385,436.671,87822
543.322,434.559,88465
543.26,432.446,88196
543.198,430.332,88196
543.135,428.218,87855
543.073,426.104,88258
543.01,423.989,88322
542.948,421.873,87897
542.886,419.757,88334
542.823,417.641,88416
542.761,415.524,88318
542.699,413.407,88308
542.636,411.289,88504
542.574,409.17,88264
542.511,407.051,88232
542.449,404.932,88245
542.387,402.812,88229
542.324,400.692,88062
542.262,398.571,88134
542.2,396.45,87949
542.137,394.328,87451
542.075,392.205,87303
542.012,390.083,87595
541.95,387.959,87602
541.888,385.836,87292
541.825,383.711,87378
541.763,381.587,87401
541.701,379.461,86862
541.638,377.336,87357
541.576,375.209,87794
541.514,373.083,86833
541.451,370.955,86724
541.389,368.828,86702
541.326,366.7,86975
541.264,364.571,86928
541.202,362.442,86755
541.139,360.312,86575
541.077,358.182,86992
541.015,356.051,86598
540.952,353.92,87044
540.89,351.789,86637
540.827,349.657,86682
540.765,347.524,86568
540.703,345.391,86446
540.64,343.257,86241
540.578,341.123,86001
540.516,338.989,86112
540.453,336.854,85866
540.391,334.718,85568
540.328,332.582,84921
540.266,330.445,85225
540.204,328.308,84932
540.141,326.171,84946
540.079,324.033,84678
540.017,321.894,84785
539.954,319.755,84712
539.892,317.616,84861
539.83,315.476,84658
539.767,313.335,84879
539.705,311.194,85457
539.642,309.053,85383
539.58,306.911,85396
539.518,304.768,85299
539.455,302.625,85454
539.393,300.482,85611
539.331,298.338,85040
539.268,296.194,84850
539.206,294.049,84398
539.143,291.903,83932
539.081,289.757,83259
539.019,287.611,83043
538.956,285.464,82543
538.894,283.316,82139
538.832,281.169,82122
538.769,279.02,82188
538.707,276.871,82547
538.644,274.722,81991
538.582,272.572,81516
538.52,270.421,79809
538.457,268.271,77363
538.395,266.119,74684
538.333,263.967,71755
538.27,261.815,69028
538.208,259.662,66723
538.146,257.508,65061
538.083,255.355,63751
538.021,253.2,62910
537.958,251.045,62307
537.896,248.89,61852
537.834,246.734,61641
537.771,244.578,61491
537.709,242.421,61530
537.647,240.263,61252
537.584,238.105,61325
537.522,235.947,61291
537.459,233.788,61166
537.397,231.629,61241
537.335,229.469,61159
537.272,227.308,61130
537.21,225.147,61176
537.148,222.986,61068
537.085,220.824,61130
537.023,218.662,61065
536.96,216.499,61081
536.898,214.335,61080
536.836,212.171,61094
536.773,210.007,61083
536.711,207.842,61065
553.364,768.549,99236
553.301,766.512,99345
553.239,764.475,99457
553.177,762.437,99084
553.114,760.398,99692
553.052,758.359,99436
552.99,756.32,99124
552.927,754.28,99238
552.865,752.24,99443
552.802,750.199,99088
552.74,748.158,98772
552.678,746.116,98898
552.615,744.074,98951
552.553,742.032,98764
552.491,739.989,99228
552.428,737.945,99144
552.366,735.901,98727
552.304,733.857,98664
552.241,731.812,99209
552.179,729.766,98160
552.116,727.721,98685
552.054,725.674,98557
551.992,723.628,98543
551.929,721.58,98519
551.867,719.533,98333
551.805,717.485,98569
551.742,715.436,99090
551.68,713.387,98672
551.617,711.337,98598
551.555,709.287,98574
551.493,707.237,98967
551.43,705.186,98587
551.368,703.135,99006
551.306,701.083,98448
551.243,699.031,98488
551.181,696.978,98764
551.119,694.925,98814
551.056,692.871,118552
550.994,690.817,98698
550.931,688.762,98595
550.869,686.707,98048
550.807,684.651,98546
550.744,682.595,98484
550.682,680.539,98224
550.62,678.482,97836
550.557,676.425,98228
550.495,674.367,98167
550.432,672.308,97935
550.37,670.25,97626
550.308,668.19,98036
550.245,666.131,98408
550.183,664.07,97453
550.121,662.01,97739
550.058,659.948,97697
549.996,657.887,97406
549.933,655.825,97573
549.871,653.762,97230
549.809,651.699,97658
549.746,649.636,97594
549.684,647.572,97355
549.622,645.507,97711
549.559,643.442,98045
549.497,641.377,97734
549.435,639.311,97699
549.372,637.245,97732
549.31,635.178,97742
549.247,633.111,97911
549.185,631.043,98012
549.123,628.975,97639
549.06,626.906,97769
548.998,624.837,97451
548.936,622.768,97587
548.873,620.698,97567
548.811,618.627,97746
548.748,616.556,97536
548.686,614.485,97493
548.624,612.413,96870
548.561,610.34,97096
548.499,608.267,96837
548.437,606.194,97453
548.374,604.12,96617
548.312,602.046,96543
548.249,599.971,96432
548.187,597.896,96258
548.125,595.82,96524
548.062,593.744,95765
548.0,591.667,95754
547.938,589.59,95377
547.875,587.513,95132
547.813,585.434,95239
547.751,583.356,94984
547.688,581.277,94984
547.626,579.197,94775
547.563,577.117,94463
547.501,575.037,94489
547.439,572.956,94424
547.376,570.875,94027
547.314,568.793,93981
547.252,566.71,94112
547.189,564.628,94499
547.127,562.544,93842
547.064,560.461,94542
547.002,558.376,94291
546.94,556.292,94017
546.877,554.206,94102
546.815,552.121,93731
546.753,550.035,94233
546.69,547.948,94258
546.628,545.861,93793
546.565,543.773,93466
546.503,541.685,93742
546.441,539.597,94065
546.378,537.508,93671
546.316,535.418,93365
546.254,533.328,93622
546.191,531.238,93698
546.129,529.147,93294
546.067,527.056,93578
546.004,524.964,93761
545.942,522.871,93147
545.879,520.778,93831
545.817,518.685,93820
545.755,516.591,94059
545.692,514.497,94405
545.63,512.402,95353
545.568,510.307,96994
545.505,508.211,99569
545.443,506.115,101813
545.38,504.019,104938
545.318,501.922,106007
545.256,499.824,104948
545.193,497.726,102450
545.131,495.627,99792
545.069,493.528,97753
545.006,491.429,95864
544.944,489.329,94978
544.881,487.228,94201
544.819,485.127,93643
544.757,483.026,93626
544.694,480.924,93005
544.632,478.821,92859
544.57,476.718,92903
544.507,474.615,92836
544.445,472.511,92736
544.383,470.407,92830
544.32,468.302,91997
544.258,466.197,92009
544.195,464.091,91753
544.133,461.985,91781
544.071,459.878,91542
544.008,457.771,91309
543.946,455.663,91724
543.884,453.555,91073
543.821,451.446,91054
543.759,449.337,90976
543.696,447.227,90355
543.634,445.117,90724
543.572,443.006,89865
543.509,440.895,90401
543.447,438.784,90093
543.385,436.671,90139
543.322,434.559,90134
543.26,432.446,90122
543.198,430.332,90477
543.135,428.218,90196
543.073,426.104,90137
543.01,423.989,90159
542.948,421.873,90557
542.886,419.757,90594
542.823,417.641,90540
542.761,415.524,90463
542.699,413.407,90932
542.636,411.289,90369
542.574,409.17,90835
542.511,407.051,90347
542.449,404.932,90259
542.387,402.812,90630
542.324,400.692,90130
542.262,398.571,89940
542.2,396.45,90616
542.137,394.328,90048
542.075,392.205,90261
542.012,390.083,89643
541.95,387.959,89557
541.888,385.836,89312
541.825,383.711,89525
541.763,381.587,89158
541.701,379.461,89330
541.638,377.336,89020
541.576,375.209,89146
541.514,373.083,88621
541.451,370.955,88678
541.389,368.828,88729
541.326,366.7,88807
541.264,364.571,88849
541.202,362.442,88617
541.139,360.312,88641
541.077,358.182,88875
541.015,356.051,88951
540.952,353.92,88766
540.89,351.789,88460
540.827,349.657,88507
540.765,347.524,88523
540.703,345.391,88108
540.64,343.257,88193
540.578,341.123,87763
540.516,338.989,87969
540.453,336.854,87694
540.391,334.718,87694
540.328,332.582,87376
540.266,330.445,86793
540.204,328.308,86642
540.141,326.171,86807
540.079,324.033,86872
540.017,321.894,86648
539.954,319.755,86575
539.892,317.616,86811
539.83,315.476,87072
539.767,313.335,86975
539.705,311.194,87095
539.642,309.053,86879
539.58,306.911,87283
539.518,304.768,87234
539.455,302.625,87478
539.393,300.482,87283
539.331,298.338,87033
539.268,296.194,86160
539.206,294.049,85832
539.143,291.903,85758
539.081,289.757,85101
539.019,287.611,84818
538.956,285.464,84009
538.894,283.316,83659
538.832,281.169,83578
538.769,279.02,83908
538.707,276.871,83931
538.644,274.722,83614
538.582,272.572,82812
538.52,270.421,80942
538.457,268.271,78626
538.395,266.119,75583
538.333,263.967,72536
538.27,261.815,69657
538.208,259.662,67250
538.146,257.508,65368
538.083,255.355,64050
538.021,253.2,62937
537.958,251.045,62592
537.896,248.89,61970
537.834,246.734,61785
537.771,244.578,61649
537.709,242.421,61474
537.647,240.263,61464
537.584,238.105,61414
537.522,235.947,61236
537.459,233.788,61320
537.397,231.629,61330
537.335,229.469,61164
537.272,227.308,61236
537.21,225.147,61308
537.148,222.986,61155
537.085,220.824,61146
537.023,218.662,61056
536.96,216.499,61061
536.898,214.335,61051
536.836,212.171,61137
536.773,210.007,61228
536.711,207.842,61127
553.364,768.549,99784
553.301,766.512,100675
553.239,764.475,100297
553.177,762.437,99844
553.114,760.398,99974
553.052,758.359,100315
552.99,756.32,100115
552.927,754.28,99997
552.865,752.24,100207
552.802,750.199,100082
552.74,748.158,99553
552.678,746.116,99505
552.615,744.074,99878
552.553,742.032,99351
552.491,739.989,99987
552.428,737.945,99597
552.366,735.901,99504
552.304,733.857,99676
552.241,731.812,99514
552.179,729.766,99405
552.116,727.721,99341
552.054,725.674,99704
551.992,723.628,99242
551.929,721.58,99386
551.867,719.533,99215
551.805,717.485,99521
551.742,715.436,99223
551.68,713.387,99554
551.617,711.337,99290
551.555,709.287,99416
551.493,707.237,99084
551.43,705.186,99621
551.368,703.135,99243
551.306,701.083,99155
551.243,699.031,99548
551.181,696.978,98828
551.119,694.925,98819
551.056,692.871,99485
550.994,690.817,98942
550.931,688.762,98792
550.869,686.707,99322
550.807,684.651,98965
550.744,682.595,99145
550.682,680.539,99056
550.62,678.482,99194
550.557,676.425,98953
550.495,674.367,98469
550.432,672.308,99457
550.37,670.25,98322
550.308,668.19,98700
550.245,666.131,99008
550.183,664.07,97850
550.121,662.01,98806
550.058,659.948,98214
549.996,657.887,97807
549.933,655.825,98229
549.871,653.762,97799
549.809,651.699,97526
549.746,649.636,97882
549.684,647.572,97857
549.622,645.507,98430
549.559,643.442,98252
549.497,641.377,98048
549.435,639.311,98549
549.372,637.245,98306
549.31,635.178,98255
549.247,633.111,98728
549.185,631.043,98011
549.123,628.975,98465
549.06,626.906,98018
548.998,624.837,97306
548.936,622.768,98627
548.873,620.698,98080
548.811,618.627,98111
548.748,616.556,97609
548.686,614.485,98327
548.624,612.413,98006
548.561,610.34,97586
548.499,608.267,97480
548.437,606.194,96946
548.374,604.12,97134
548.312,602.046,97355
548.249,599.971,97446
548.187,597.896,96545
548.125,595.82,96446
548.062,593.744,96459
548.0,591.667,96146
547.938,589.59,96007
547.875,587.513,96170
547.813,585.434,95564
547.751,583.356,95739
547.688,581.277,95689
547.626,579.197,95514
547.563,577.117,95448
547.501,575.037,95682
547.439,572.956,95004
547.376,570.875,95008
547.314,568.793,95027
547.252,566.71,94850
547.189,564.628,94851
547.127,562.544,94726
547.064,560.461,94670
547.002,558.376,94674
546.94,556.292,94488
546.877,554.206,94503
546.815,552.121,94495
546.753,550.035,94297
546.69,547.948,94547
546.628,545.861,94247
546.565,543.773,94035
546.503,541.685,94268
546.441,539.597,94247
546.378,537.508,94077
546.316,535.418,93835
546.254,533.328,94055
546.191,531.238,93852
546.129,529.147,93932
546.067,527.056,93839
546.004,524.964,93733
545.942,522.871,94012
545.879,520.778,94271
545.817,518.685,94358
545.755,516.591,94792
545.692,514.497,95264
545.63,512.402,96019
545.568,510.307,97706
545.505,508.211,99461
545.443,506.115,102790
545.38,504.019,105413
545.318,501.922,106369
545.256,499.824,105296
545.193,497.726,102670
545.131,495.627,100207
545.069,493.528,98291
545.006,491.429,96751
544.944,489.329,95391
544.881,487.228,94942
544.819,485.127,94452
544.757,483.026,93901
544.694,480.924,93828
544.632,478.821,93442
544.57,476.718,93732
544.507,474.615,92866
544.445,472.511,93324
544.383,470.407,93070
544.32,468.302,92983
544.258,466.197,92567
544.195,464.091,91932
544.133,461.985,92674
544.071,459.878,92328
544.008,457.771,92161
543.946,455.663,91945
543.884,453.555,91656
543.821,451.446,91515
543.759,449.337,91179
543.696,447.227,91692
543.634,445.117,90898
543.572,443.006,90897
543.509,440.895,91114
543.447,438.784,90788
543.385,436.671,90538
543.322,434.559,90619
543.26,432.446,90998
543.198,430.332,90790
543.135,428.218,90687
543.073,426.104,91057
543.01,423.989,91154
542.948,421.873,90963
542.886,419.757,91127
542.823,417.641,90564
542.761,415.524,90819
542.699,413.407,90997
542.636,411.289,90867
542.574,409.17,90727
542.511,407.051,91166
542.449,404.932,90854
542.387,402.812,90822
542.324,400.692,90996
542.262,398.571,90496
542.2,396.45,90463
542.137,394.328,90363
542.075,392.205,90199
542.012,390.083,90110
541.95,387.959,90703
541.888,385.836,89963
541.825,383.711,89889
541.763,381.587,89789
541.701,379.461,90017
541.638,377.336,89769
541.576,375.209,89562
541.514,373.083,89390
541.451,370.955,89409
541.389,368.828,89448
541.326,366.7,89353
541.264,364.571,89614
541.202,362.442,89594
541.139,360.312,89406
541.077,358.182,89284
541.015,356.051,89549
540.952,353.92,89179
540.89,351.789,89251
540.827,349.657,89249
540.765,347.524,88833
540.703,345.391,88622
540.64,343.257,88089
540.578,341.123,88715
540.516,338.989,88246
540.453,336.854,88137
540.391,334.718,88041
540.328,332.582,87558
540.266,330.445,87318
540.204,328.308,87446
540.141,326.171,86995
540.079,324.033,86962
540.017,321.894,86904
539.954,319.755,87236
539.892,317.616,87048
539.83,315.476,87778
539.767,313.335,87463
539.705,311.194,87867
539.642,309.053,87676
539.58,306.911,87807
539.518,304.768,87740
539.455,302.625,87388
539.393,300.482,87445
539.331,298.338,87329
539.268,296.194,87168
539.206,294.049,86572
539.143,291.903,86220
539.081,289.757,85816
539.019,287.611,84952
538.956,285.464,84678
538.894,283.316,84282
538.832,281.169,84005
538.769,279.02,84203
538.707,276.871,84311
538.644,274.722,83869
538.582,272.572,82887
538.52,270.421,81334
538.457,268.271,78937
538.395,266.119,75985
538.333,263.967,72699
538.27,261.815,69973
538.208,259.662,67406
538.146,257.508,65501
538.083,255.355,63929
538.021,253.2,63079
537.958,251.045,62506
537.896,248.89,61920
537.834,246.734,61806
537.771,244.578,61581
537.709,242.421,61538
537.647,240.263,61464
537.584,238.105,61348
537.522,235.947,61297
537.459,233.788,61252
537.397,231.629,61354
537.335,229.469,61154
537.272,227.308,61257
537.21,225.147,61168
537.148,222.986,61179
537.085,220.824,61123
537.023,218.662,61258
536.96,216.499,61037
536.898,214.335,61136
536.836,212.171,61101
536.773,210.007,61057
536.711,207.842,61174
553.364,768.549,100685
553.301,766.512,101471
553.239,764.475,101374
553.177,762.437,101193
553.114,760.398,101473
553.052,758.359,101406
552.99,756.32,100913
552.927,754.28,101307
552.865,752.24,100755
552.802,750.199,101025
552.74,748.158,100784
552.678,746.116,101254
552.615,744.074,100868
552.553,742.032,100597
552.491,739.989,101036
552.428,737.945,100902
552.366,735.901,100836
552.304,733.857,100597
552.241,731.812,100777
552.179,729.766,100542
552.116,727.721,101004
552.054,725.674,99871
551.992,723.628,100543
551.929,721.58,100370
551.867,719.533,100510
551.805,717.485,100555
551.742,715.436,99990
551.68,713.387,100526
551.617,711.337,101139
551.555,709.287,100675
551.493,707.237,100340
551.43,705.186,100538
551.368,703.135,100193
551.306,701.083,100587
551.243,699.031,100509
551.181,696.978,100612
551.119,694.925,100634
551.056,692.871,100327
550.994,690.817,100444
550.931,688.762,100179
550.869,686.707,100293
550.807,684.651,100209
550.744,682.595,99823
550.682,680.539,99948
550.62,678.482,99703
550.557,676.425,99927
550.495,674.367,100100
550.432,672.308,99578
550.37,670.25,99959
550.308,668.19,99471
550.245,666.131,99796
550.183,664.07,99165
550.121,662.01,99396
550.058,659.948,99406
549.996,657.887,99362
549.933,655.825,99406
549.871,653.762,99326
549.809,651.699,99019
549.746,649.636,99596
549.684,647.572,99301
549.622,645.507,99121
549.559,643.442,99360
549.497,641.377,99479
549.435,639.311,99119
549.372,637.245,99142
549.31,635.178,99109
549.247,633.111,99847
549.185,631.043,99434
549.123,628.975,99152
549.06,626.906,99845
548.998,624.837,99503
548.936,622.768,99374
548.873,620.698,99392
548.811,618.627,99172
548.748,616.556,98988
548.686,614.485,99112
548.624,612.413,98517
548.561,610.34,98399
548.499,608.267,98617
548.437,606.194,98513
548.374,604.12,98117
548.312,602.046,97904
548.249,599.971,98100
548.187,597.896,97819
548.125,595.82,97651
548.062,593.744,97563
548.0,591.667,97048
547.938,589.59,97004
547.875,587.513,96944
547.813,585.434,96510
547.751,583.356,96881
547.688,581.277,96386
547.626,579.197,96476
547.563,577.117,96064
547.501,575.037,96047
547.439,572.956,96114
547.376,570.875,95866
547.314,568.793,95912
547.252,566.71,95800
547.189,564.628,95430
547.127,562.544,95700
547.064,560.461,95754
547.002,558.376,95441
546.94,556.292,95591
546.877,554.206,95544
546.815,552.121,94917
546.753,550.035,95603
546.69,547.948,95676
546.628,545.861,95472
546.565,543.773,95027
546.503,541.685,94677
546.441,539.597,95328
546.378,537.508,95310
546.316,535.418,94696
546.254,533.328,94855
546.191,531.238,95313
546.129,529.147,94942
546.067,527.056,94789
546.004,524.964,94875
545.942,522.871,94453
545.879,520.778,94963
545.817,518.685,95135
545.755,516.591,95541
545.692,514.497,96098
545.63,512.402,96858
545.568,510.307,98644
545.505,508.211,100601
545.443,506.115,103381
545.38,504.019,105983
545.318,501.922,106876
545.256,499.824,106663
545.193,497.726,103713
545.131,495.627,101370
545.069,493.528,98937
545.006,491.429,97342
544.944,489.329,96243
544.881,487.228,95874
544.819,485.127,95296
544.757,483.026,94852
544.694,480.924,94615
544.632,478.821,94481
544.57,476.718,94042
544.507,474.615,93822
544.445,472.511,93555
544.383,470.407,93834
544.32,468.302,93700
544.258,466.197,93560
544.195,464.091,93203
544.133,461.985,93124
544.071,459.878,93034
544.008,457.771,92639
543.946,455.663,92762
543.884,453.555,92370
543.821,451.446,92122
543.759,449.337,92231
543.696,447.227,92058
543.634,445.117,91635
543.572,443.006,91821
543.509,440.895,91743
543.447,438.784,91383
543.385,436.671,91417
543.322,434.559,91199
543.26,432.446,91550
543.198,430.332,91323
543.135,428.218,91344
543.073,426.104,91841
543.01,423.989,91710
542.948,421.873,91480
542.886,419.757,91953
542.823,417.641,91840
542.761,415.524,91795
542.699,413.407,91847
542.636,411.289,91887
542.574,409.17,91907
542.511,407.051,91729
542.449,404.932,92026
542.387,402.812,91951
542.324,400.692,91535
542.262,398.571,91553
542.2,396.45,91287
542.137,394.328,91672
542.075,392.205,91609
542.012,390.083,91371
541.95,387.959,91074
541.888,385.836,90903
541.825,383.711,90638
541.763,381.587,90673
541.701,379.461,90165
541.638,377.336,90456
541.576,375.209,90136
541.514,373.083,90401
541.451,370.955,90219
541.389,368.828,90272
541.326,366.7,89892
541.264,364.571,89991
541.202,362.442,89921
541.139,360.312,90113
541.077,358.182,89984
541.015,356.051,90171
540.952,353.92,90203
540.89,351.789,90013
540.827,349.657,89885
540.765,347.524,90099
540.703,345.391,89306
540.64,343.257,89613
540.578,341.123,89200
540.516,338.989,88986
540.453,336.854,89079
540.391,334.718,88513
540.328,332.582,88464
540.266,330.445,88378
540.204,328.308,87972
540.141,326.171,88293
540.079,324.033,87997
540.017,321.894,87544
539.954,319.755,87755
539.892,317.616,88057
539.83,315.476,88091
539.767,313.335,88172
539.705,311.194,88384
539.642,309.053,88397
539.58,306.911,88776
539.518,304.768,88702
539.455,302.625,88529
539.393,300.482,87952
539.331,298.338,87856
539.268,296.194,87827
539.206,294.049,87181
539.143,291.903,86542
539.081,289.757,86055
539.019,287.611,85270
538.956,285.464,84992
538.894,283.316,84933
538.832,281.169,84527
538.769,279.02,84727
538.707,276.871,85155
538.644,274.722,84965
538.582,272.572,83495
538.52,270.421,82069
538.457,268.271,79383
538.395,266.119,76427
538.333,263.967,73191
538.27,261.815,70060
538.208,259.662,67415
538.146,257.508,65513
538.083,255.355,64151
538.021,253.2,63218
537.958,251.045,62547
537.896,248.89,62072
537.834,246.734,61750
537.771,244.578,61679
537.709,242.421,61411
537.647,240.263,61541
537.584,238.105,61406
537.522,235.947,61390
537.459,233.788,61305
537.397,231.629,61321
537.335,229.469,61159
537.272,227.308,61213
537.21,225.147,61176
537.148,222.986,61224
537.085,220.824,61212
537.023,218.662,61213
536.96,216.499,61156
536.898,214.335,61172
536.836,212.171,61198
536.773,210.007,61033
536.711,207.842,61176
553.364,768.549,102299
553.301,766.512,103045
553.239,764.475,102562
553.177,762.437,102727
553.114,760.398,102718
553.052,758.359,102546
552.99,756.32,102543
552.927,754.28,102544
552.865,752.24,102651
552.802,750.199,102506
552.74,748.158,102501
552.678,746.116,102395
552.615,744.074,102502
552.553,742.032,102393
552.491,739.989,101942
552.428,737.945,102265
552.366,735.901,101756
552.304,733.857,101624
552.241,731.812,101344
552.179,729.766,102019
552.116,727.721,102169
552.054,725.674,101642
551.992,723.628,100973
551.929,721.58,102418
551.867,719.533,101382
551.805,717.485,101435
551.742,715.436,101924
551.68,713.387,101788
551.617,711.337,101640
551.555,709.287,102177
551.493,707.237,101838
551.43,705.186,101379
551.368,703.135,101704
551.306,701.083,101507
551.243,699.031,101706
551.181,696.978,101293
551.119,694.925,101657
551.056,692.871,101705
550.994,690.817,101421
550.931,688.762,101526
550.869,686.707,101613
550.807,684.651,101393
550.744,682.595,101589
550.682,680.539,101278
550.62,678.482,101203
550.557,676.425,101205
550.495,674.367,101441
550.432,672.308,101012
550.37,670.25,100734
550.308,668.19,100989
550.245,666.131,100777
550.183,664.07,100703
550.121,662.01,100213
550.058,659.948,100427
549.996,657.887,100692
549.933,655.825,100288
549.871,653.762,100232
549.809,651.699,100511
549.746,649.636,100758
549.684,647.572,100491
549.622,645.507,100682
549.559,643.442,100597
549.497,641.377,100545
549.435,639.311,100534
549.372,637.245,100926
549.31,635.178,100794
549.247,633.111,100732
549.185,631.043,100427
549.123,628.975,100412
549.06,626.906,100848
548.998,624.837,100466
548.936,622.768,100564
548.873,620.698,100451
548.811,618.627,100653
548.748,616.556,100764
548.686,614.485,100110
548.624,612.413,99955
548.561,610.34,99814
548.499,608.267,99654
548.437,606.194,99689
548.374,604.12,99366
548.312,602.046,99645
548.249,599.971,99608
548.187,597.896,99289
548.125,595.82,99404
548.062,593.744,98623
548.0,591.667,98510
547.938,589.59,98385
547.875,587.513,98024
547.813,585.434,98412
547.751,583.356,97784
547.688,581.277,98151
547.626,579.197,97281
547.563,577.117,97516
547.501,575.037,97247
547.439,572.956,96909
547.376,570.875,97085
547.314,568.793,96940
547.252,566.71,96640
547.189,564.628,96840
547.127,562.544,96844
547.064,560.461,97039
547.002,558.376,97211
546.94,556.292,96533
546.877,554.206,96289
546.815,552.121,96766
546.753,550.035,96500
546.69,547.948,96460
546.628,545.861,96658
546.565,543.773,96012
546.503,541.685,96515
546.441,539.597,96687
546.378,537.508,96728
546.316,535.418,96182
546.254,533.328,96160
546.191,531.238,96287
546.129,529.147,96354
546.067,527.056,96147
546.004,524.964,96397
545.942,522.871,95944
545.879,520.778,96486
545.817,518.685,96563
545.755,516.591,96843
545.692,514.497,97171
545.63,512.402,97910
545.568,510.307,99387
545.505,508.211,101285
545.443,506.115,104694
545.38,504.019,107323
545.318,501.922,108469
545.256,499.824,107490
545.193,497.726,105160
545.131,495.627,101875
545.069,493.528,100346
545.006,491.429,98359
544.944,489.329,97660
544.881,487.228,96449
544.819,485.127,96742
544.757,483.026,96115
544.694,480.924,95747
544.632,478.821,95588
544.57,476.718,95632
544.507,474.615,95316
544.445,472.511,95121
544.383,470.407,95216
544.32,468.302,94839
544.258,466.197,94799
544.195,464.091,94798
544.133,461.985,94409
544.071,459.878,94330
544.008,457.771,94261
543.946,455.663,94304
543.884,453.555,93775
543.821,451.446,93543
543.759,449.337,93036
543.696,447.227,93253
543.634,445.117,93027
543.572,443.006,93405
543.509,440.895,93063
543.447,438.784,92821
543.385,436.671,92714
543.322,434.559,92092
543.26,432.446,92579
543.198,430.332,92463
543.135,428.218,92896
543.073,426.104,92366
543.01,423.989,92856
542.948,421.873,92831
542.886,419.757,92839
542.823,417.641,92636
542.761,415.524,92743
542.699,413.407,93232
542.636,411.289,92958
542.574,409.17,92782
542.511,407.051,92950
542.449,404.932,93198
542.387,402.812,92792
542.324,400.692,92829
542.262,398.571,92245
542.2,396.45,92596
542.137,394.328,92563
542.075,392.205,92682
542.012,390.083,91980
541.95,387.959,92186
541.888,385.836,91723
541.825,383.711,91766
541.763,381.587,91350
541.701,379.461,91949
541.638,377.336,91396
541.576,375.209,91423
541.514,373.083,91729
541.451,370.955,91731
541.389,368.828,90992
541.326,366.7,91210
541.264,364.571,90946
541.202,362.442,91297
541.139,360.312,91019
541.077,358.182,91223
541.015,356.051,91518
540.952,353.92,91538
540.89,351.789,91005
540.827,349.657,90722
540.765,347.524,91049
540.703,345.391,90615
540.64,343.257,90654
540.578,341.123,90507
540.516,338.989,89665
540.453,336.854,89962
540.391,334.718,89497
540.328,332.582,89443
540.266,330.445,89178
540.204,328.308,89193
540.141,326.171,89301
540.079,324.033,89111
540.017,321.894,88416
539.954,319.755,88667
539.892,317.616,89315
539.83,315.476,89184
539.767,313.335,89148
539.705,311.194,89111
539.642,309.053,89281
539.58,306.911,89531
539.518,304.768,89479
539.455,302.625,88923
539.393,300.482,89274
539.331,298.338,88611
539.268,296.194,88650
539.206,294.049,88138
539.143,291.903,87331
539.081,289.757,86946
539.019,287.611,86466
538.956,285.464,86081
538.894,283.316,85532
538.832,281.169,85863
538.769,279.02,85384
538.707,276.871,85595
538.644,274.722,85642
538.582,272.572,84541
538.52,270.421,82667
538.457,268.271,79858
538.395,266.119,76835
538.333,263.967,73461
538.27,261.815,70343
538.208,259.662,67898
538.146,257.508,65691
538.083,255.355,64303
538.021,253.2,63156
537.958,251.045,62591
537.896,248.89,62165
537.834,246.734,61879
537.771,244.578,61698
537.709,242.421,61650
537.647,240.263,61313
537.584,238.105,61264
537.522,235.947,61320
537.459,233.788,61299
537.397,231.629,61353
537.335,229.469,61279
537.272,227.308,61207
537.21,225.147,61313
537.148,222.986,61156
537.085,220.824,61207
537.023,218.662,61095
536.96,216.499,61232
536.898,214.335,61173
536.836,212.171,61156
536.773,210.007,61164
536.711,207.842,61255
536.661,206.11,61059