File: tomke/20240809_Si_on_TiO2/20240809/raw_data/Si_onTiO2_50mA_30mW_30sec_3acc_517nm_bg.txt
Wavelength(nm), Raman shift(cm^-1), Intensity(counts)
525.364,-194.586,63117
525.326,-195.942,63198
525.289,-197.298,63406
525.252,-198.654,63462
525.214,-200.011,63550
525.177,-201.367,63353
525.139,-202.724,63462
525.102,-204.081,63427
525.064,-205.439,63366
525.027,-206.796,63393
524.99,-208.154,63409
524.952,-209.512,63324
524.915,-210.87,63711
524.877,-212.228,63477
524.84,-213.586,63531
524.802,-214.945,63481
524.765,-216.304,63522
524.728,-217.663,63584
524.69,-219.022,63496
524.653,-220.381,63372
524.615,-221.741,63406
524.578,-223.101,63416
524.541,-224.461,63696
524.503,-225.821,63495
524.466,-227.181,63620
524.428,-228.542,63336
524.391,-229.903,63683
524.353,-231.264,63523
524.316,-232.625,63506
524.279,-233.986,63564
524.241,-235.348,63369
524.204,-236.71,63589
524.166,-238.072,63567
524.129,-239.434,63669
524.091,-240.796,63637
524.054,-242.159,63563
524.017,-243.521,63474
523.979,-244.884,63643
523.942,-246.247,63573
523.904,-247.611,63524
523.867,-248.974,63561
523.83,-250.338,63920
523.792,-251.702,63805
523.755,-253.066,63836
523.717,-254.43,63769
523.68,-255.794,63923
523.642,-257.159,63896
523.605,-258.524,63636
523.568,-259.889,64038
523.53,-261.254,63873
523.493,-262.62,64081
523.455,-263.985,64061
523.418,-265.351,64106
523.38,-266.717,64281
523.343,-268.084,64432
523.306,-269.45,64693
523.268,-270.817,64871
523.231,-272.183,65296
523.193,-273.55,65624
523.156,-274.918,65910
523.119,-276.285,66074
523.081,-277.653,66498
523.044,-279.02,66773
523.006,-280.388,66964
522.969,-281.757,67173
522.931,-283.125,67332
522.894,-284.494,67418
522.857,-285.862,67471
522.819,-287.231,67662
522.782,-288.6,67674
522.744,-289.97,67944
522.707,-291.339,67915
522.669,-292.709,68027
522.632,-294.079,67950
522.595,-295.449,67829
522.557,-296.82,67844
522.52,-298.19,67810
522.482,-299.561,67850
522.445,-300.932,67748
522.407,-302.303,67749
522.37,-303.674,67990
522.333,-305.046,68026
522.295,-306.417,67984
522.258,-307.789,67781
522.22,-309.161,67843
522.183,-310.534,67762
522.146,-311.906,67863
522.108,-313.279,67890
522.071,-314.652,67831
522.033,-316.025,67812
521.996,-317.398,67738
521.958,-318.772,67424
521.921,-320.145,67560
521.884,-321.519,67785
521.846,-322.893,67743
521.809,-324.268,67543
521.771,-325.642,67373
521.734,-327.017,67639
521.696,-328.392,67430
521.659,-329.767,67668
521.622,-331.142,67376
521.584,-332.517,67535
521.547,-333.893,67452
521.509,-335.269,67579
521.472,-336.645,67420
521.435,-338.021,67495
521.397,-339.398,67380
521.36,-340.774,67511
521.322,-342.151,67671
521.285,-343.528,67137
521.247,-344.905,67326
521.21,-346.283,67557
521.173,-347.66,67264
521.135,-349.038,67260
521.098,-350.416,67407
521.06,-351.795,67178
521.023,-353.173,67239
520.985,-354.552,67130
520.948,-355.93,67329
520.911,-357.309,67105
520.873,-358.689,66995
520.836,-360.068,67292
520.798,-361.448,67117
520.761,-362.828,66974
520.723,-364.208,66937
520.686,-365.588,66890
520.649,-366.968,66864
520.611,-368.349,66984
520.574,-369.73,66946
520.536,-371.111,66969
520.499,-372.492,66961
520.462,-373.873,66820
520.424,-375.255,66814
520.387,-376.637,66651
520.349,-378.019,66623
520.312,-379.401,66686
520.274,-380.783,66771
520.237,-382.166,66671
520.2,-383.548,66398
520.162,-384.931,66534
520.125,-386.315,66646
520.087,-387.698,66459
520.05,-389.082,66610
520.012,-390.465,66583
519.975,-391.849,66438
519.938,-393.234,66191
519.9,-394.618,66653
519.863,-396.003,66389
519.825,-397.387,66531
519.788,-398.772,66319
519.751,-400.158,66453
519.713,-401.543,66290
519.676,-402.928,66279
519.638,-404.314,66214
519.601,-405.7,66428
519.563,-407.086,66135
519.526,-408.473,66061
519.489,-409.859,66165
519.451,-411.246,66123
519.414,-412.633,65920
519.376,-414.02,66136
519.339,-415.408,66026
519.301,-416.795,66007
519.264,-418.183,65863
519.227,-419.571,65925
519.189,-420.959,65857
519.152,-422.348,66068
519.114,-423.736,65972
519.077,-425.125,65801
519.04,-426.514,65676
519.002,-427.903,65711
518.965,-429.292,65656
518.927,-430.682,65496
518.89,-432.072,65519
518.852,-433.462,65333
518.815,-434.852,65646
518.778,-436.242,65550
518.74,-437.633,65463
518.703,-439.024,65486
518.665,-440.415,65379
518.628,-441.806,65598
518.59,-443.197,65408
518.553,-444.589,65428
518.516,-445.981,65281
518.478,-447.373,65205
518.441,-448.765,65194
518.403,-450.157,65358
518.366,-451.55,65306
518.328,-452.943,65349
518.291,-454.336,65291
518.254,-455.729,65155
518.216,-457.122,64898
518.179,-458.516,65005
518.141,-459.91,65132
518.104,-461.304,65109
518.067,-462.698,65075
518.029,-464.092,64815
517.992,-465.487,65123
517.954,-466.882,64905
517.917,-468.277,64863
517.879,-469.672,65031
517.842,-471.067,64926
517.805,-472.463,64996
517.767,-473.859,64646
517.73,-475.255,64778
517.692,-476.651,64894
517.655,-478.047,64954
517.617,-479.444,64635
517.58,-480.841,64698
517.543,-482.238,64714
517.505,-483.635,64843
517.468,-485.032,64709
517.43,-486.43,64672
517.393,-487.828,64780
517.356,-489.226,64790
517.318,-490.624,64626
517.281,-492.023,64595
517.243,-493.421,64791
517.206,-494.82,64683
517.168,-496.219,64526
517.131,-497.618,64614
517.094,-499.018,64482
517.056,-500.417,64784
517.019,-501.817,64504
516.981,-503.217,64731
516.944,-504.618,64653
516.906,-506.018,64537
516.869,-507.419,64534
516.832,-508.82,64694
516.794,-510.221,64582
516.757,-511.622,64774
516.719,-513.023,64538
516.682,-514.425,64655
516.644,-515.827,64509
516.607,-517.229,64608
516.57,-518.631,64583
516.532,-520.034,64479
516.495,-521.437,64452
516.457,-522.839,64517
516.42,-524.243,64415
516.383,-525.646,64538
516.345,-527.049,64569
516.308,-528.453,64584
516.27,-529.857,64531
516.233,-531.261,64523
516.195,-532.665,64511
516.158,-534.07,64417
516.121,-535.475,64329
516.083,-536.88,64428
516.046,-538.285,64458
516.008,-539.69,64623
515.971,-541.096,64450
515.933,-542.501,64435
515.896,-543.907,64328
515.859,-545.314,64576
515.821,-546.72,64496
515.784,-548.126,64447
515.746,-549.533,64511
515.709,-550.94,64376
515.672,-552.347,64509
515.634,-553.755,64415
515.597,-555.162,64490
515.559,-556.57,64312
515.522,-557.978,64489
515.484,-559.386,64447
515.447,-560.795,64386
515.41,-562.203,64288
515.372,-563.612,64297
515.335,-565.021,64337
515.297,-566.43,64479
515.26,-567.84,64351
515.222,-569.25,64225
515.185,-570.659,64281
515.148,-572.069,64348
515.11,-573.48,64427
515.073,-574.89,64325
515.035,-576.301,64277
514.998,-577.712,64343
514.96,-579.123,64444
514.923,-580.534,64459
514.886,-581.945,64385
514.848,-583.357,64248
514.811,-584.769,64380
514.773,-586.181,64277
514.736,-587.593,64323
514.699,-589.006,64237
514.661,-590.419,64293
514.624,-591.832,64210
514.586,-593.245,64297
514.549,-594.658,64208
514.511,-596.072,64219
514.474,-597.485,64302
514.437,-598.899,64225
514.399,-600.313,64043
514.362,-601.728,64291
514.324,-603.142,64268
514.287,-604.557,64194
514.249,-605.972,64097
514.212,-607.387,63989
514.175,-608.803,64055
514.137,-610.218,64172
514.1,-611.634,64202
514.062,-613.05,64273
514.025,-614.466,64097
513.988,-615.883,64095
513.95,-617.299,64093
513.913,-618.716,64176
513.875,-620.133,64111
513.838,-621.55,64190
513.8,-622.968,64139
513.763,-624.385,64045
513.726,-625.803,64091
513.688,-627.221,64209
513.651,-628.64,64056
513.613,-630.058,64140
513.576,-631.477,64022
513.538,-632.896,64063
513.501,-634.315,64099
513.464,-635.734,64064
513.426,-637.154,64169
513.389,-638.573,64050
513.351,-639.993,63729
513.314,-641.413,63881
513.277,-642.834,64030
513.239,-644.254,63924
513.202,-645.675,63982
513.164,-647.096,63870
513.127,-648.517,63859
513.089,-649.939,63751
513.052,-651.36,63916
513.015,-652.782,63929
512.977,-654.204,63969
512.94,-655.626,63966
512.902,-657.049,63891
512.865,-658.471,63883
512.827,-659.894,63811
512.79,-661.317,63994
512.753,-662.74,63935
512.715,-664.164,63764
512.678,-665.587,63897
512.64,-667.011,63779
512.603,-668.435,63651
512.565,-669.86,63732
512.528,-671.284,63698
512.491,-672.709,63748
512.453,-674.134,63770
512.416,-675.559,63766
512.378,-676.984,63860
512.341,-678.41,63612
512.304,-679.835,63719
512.266,-681.261,63560
512.229,-682.688,63847
512.191,-684.114,63893
512.154,-685.54,63564
512.116,-686.967,63750
512.079,-688.394,63685
512.042,-689.821,63654
512.004,-691.249,63683
511.967,-692.677,63773
511.929,-694.104,63536
511.892,-695.532,63645
511.854,-696.961,63671
511.817,-698.389,63808
511.78,-699.818,63403
511.742,-701.247,63470
511.705,-702.676,63495
511.667,-704.105,63548
511.63,-705.534,63490
511.593,-706.964,63553
511.555,-708.394,63538
511.518,-709.824,63667
511.48,-711.255,63578
511.443,-712.685,63466
511.405,-714.116,63392
511.368,-715.547,63372
511.331,-716.978,63650
511.293,-718.409,63503
511.256,-719.841,63448
511.218,-721.273,63443
511.181,-722.705,63471
511.143,-724.137,63490
511.106,-725.569,63421
511.069,-727.002,63600
511.031,-728.435,63380
510.994,-729.868,63278
510.956,-731.301,63449
510.919,-732.735,63366
510.881,-734.168,63437
510.844,-735.602,63487
510.807,-737.036,63433
510.769,-738.471,63480
510.732,-739.905,63468
510.694,-741.34,63346
510.657,-742.775,63294
510.62,-744.21,63356
510.582,-745.646,63316
510.545,-747.081,63249
510.507,-748.517,63266
510.47,-749.953,63219
510.432,-751.389,63254
510.395,-752.826,63287
510.358,-754.262,63121
510.32,-755.699,63241
510.283,-757.136,63187
510.245,-758.573,63337
510.208,-760.011,63147
510.17,-761.448,63216
510.133,-762.886,63335
510.096,-764.325,63180
510.058,-765.763,63297
510.021,-767.201,63120
509.983,-768.64,63248
509.946,-770.079,63294
509.909,-771.518,63244
509.871,-772.958,63157
509.834,-774.397,63162
509.796,-775.837,63187
509.759,-777.277,63017
509.721,-778.717,63011
509.684,-780.158,62946
509.647,-781.598,63222
509.609,-783.039,63041
509.572,-784.48,63157
509.534,-785.922,63047
509.497,-787.363,63036
509.459,-788.805,63075
509.422,-790.247,63160
509.385,-791.689,62945
509.347,-793.131,63044
509.31,-794.574,62931
509.272,-796.016,63040
509.235,-797.459,62989
509.198,-798.903,63162
509.16,-800.346,63085
509.123,-801.79,62903
509.085,-803.233,62939
509.048,-804.677,62940
509.01,-806.122,62991
508.973,-807.566,63000
508.936,-809.011,62757
508.898,-810.456,62871
508.861,-811.901,63006
508.823,-813.346,63027
508.786,-814.792,62957
508.748,-816.237,62881
508.711,-817.683,63013
508.674,-819.13,62775
525.351,-195.038,63106
525.314,-196.394,63292
525.277,-197.75,63393
525.239,-199.106,63286
525.202,-200.463,63358
525.164,-201.82,63313
525.127,-203.177,63348
525.089,-204.534,63331
525.052,-205.891,63383
525.015,-207.249,63238
524.977,-208.606,63280
524.94,-209.964,63412
524.902,-211.322,63450
524.865,-212.681,63325
524.827,-214.039,63576
524.79,-215.398,63414
524.753,-216.757,63404
524.715,-218.116,63446
524.678,-219.475,63625
524.64,-220.835,63425
524.603,-222.194,63540
524.565,-223.554,63381
524.528,-224.914,63541
524.491,-226.275,63298
524.453,-227.635,63537
524.416,-228.996,63524
524.378,-230.356,63391
524.341,-231.717,63520
524.304,-233.079,63481
524.266,-234.44,63649
524.229,-235.802,63544
524.191,-237.164,63445
524.154,-238.526,63555
524.116,-239.888,63680
524.079,-241.25,63666
524.042,-242.613,63519
524.004,-243.976,63745
523.967,-245.339,63602
523.929,-246.702,63505
523.892,-248.065,63483
523.854,-249.429,63598
523.817,-250.792,63631
523.78,-252.156,63673
523.742,-253.52,63590
523.705,-254.885,63602
523.667,-256.249,63619
523.63,-257.614,63649
523.593,-258.979,63875
523.555,-260.344,63702
523.518,-261.709,63938
523.48,-263.075,63989
523.443,-264.441,63870
523.405,-265.807,64300
523.368,-267.173,64454
523.331,-268.539,64540
523.293,-269.905,64719
523.256,-271.272,64998
523.218,-272.639,65140
523.181,-274.006,65343
523.143,-275.373,65719
523.106,-276.741,66129
523.069,-278.109,66177
523.031,-279.476,66362
522.994,-280.844,66792
522.956,-282.213,67067
522.919,-283.581,67195
522.881,-284.95,67316
522.844,-286.319,67291
522.807,-287.688,67607
522.769,-289.057,67498
522.732,-290.426,67639
522.694,-291.796,67762
522.657,-293.166,67644
522.62,-294.536,67691
522.582,-295.906,67717
522.545,-297.276,67650
522.507,-298.647,67592
522.47,-300.018,67871
522.432,-301.389,67733
522.395,-302.76,67725
522.358,-304.131,67745
522.32,-305.503,67659
522.283,-306.875,67629
522.245,-308.247,67679
522.208,-309.619,67549
522.17,-310.991,67758
522.133,-312.364,67665
522.096,-313.737,67537
522.058,-315.11,67730
522.021,-316.483,67659
521.983,-317.856,67676
521.946,-319.23,67740
521.909,-320.603,67513
521.871,-321.977,67246
521.834,-323.351,67408
521.796,-324.726,67354
521.759,-326.1,67383
521.721,-327.475,67350
521.684,-328.85,67289
521.647,-330.225,67468
521.609,-331.6,67371
521.572,-332.976,67245
521.534,-334.352,67235
521.497,-335.728,67286
521.459,-337.104,67501
521.422,-338.48,67279
521.385,-339.857,67204
521.347,-341.233,67073
521.31,-342.61,67205
521.272,-343.987,67041
521.235,-345.365,66990
521.198,-346.742,67095
521.16,-348.12,66938
521.123,-349.498,67019
521.085,-350.876,67168
521.048,-352.254,67096
521.01,-353.633,67200
520.973,-355.011,67005
520.936,-356.39,66832
520.898,-357.769,66775
520.861,-359.148,67069
520.823,-360.528,66981
520.786,-361.908,66847
520.748,-363.287,66750
520.711,-364.668,66855
520.674,-366.048,66721
520.636,-367.428,66775
520.599,-368.809,66758
520.561,-370.19,66627
520.524,-371.571,66718
520.486,-372.952,66676
520.449,-374.334,66490
520.412,-375.715,66495
520.374,-377.097,66484
520.337,-378.479,66798
520.299,-379.861,66357
520.262,-381.244,66519
520.225,-382.627,66345
520.187,-384.009,66377
520.15,-385.393,66458
520.112,-386.776,66328
520.075,-388.159,66520
520.037,-389.543,66482
520.0,-390.927,66197
519.963,-392.311,66352
519.925,-393.695,66150
519.888,-395.079,66095
519.85,-396.464,66133
519.813,-397.849,66111
519.775,-399.234,66119
519.738,-400.619,66141
519.701,-402.005,66185
519.663,-403.39,66333
519.626,-404.776,66116
519.588,-406.162,66074
519.551,-407.548,66040
519.514,-408.935,65832
519.476,-410.322,66062
519.439,-411.708,65957
519.401,-413.095,65966
519.364,-414.483,65902
519.326,-415.87,65807
519.289,-417.258,65938
519.252,-418.646,65787
519.214,-420.034,65839
519.177,-421.422,65814
519.139,-422.81,65770
519.102,-424.199,65856
519.064,-425.588,65665
519.027,-426.977,65564
518.99,-428.366,65582
518.952,-429.756,65392
518.915,-431.145,65572
518.877,-432.535,65230
518.84,-433.925,65352
518.802,-435.315,65451
518.765,-436.706,65261
518.728,-438.096,65396
518.69,-439.487,65387
518.653,-440.878,65288
518.615,-442.27,65217
518.578,-443.661,65181
518.541,-445.053,65120
518.503,-446.445,65215
518.466,-447.837,65099
518.428,-449.229,65123
518.391,-450.621,65167
518.353,-452.014,64999
518.316,-453.407,64726
518.279,-454.8,65063
518.241,-456.193,65022
518.204,-457.587,64904
518.166,-458.98,65051
518.129,-460.374,64848
518.091,-461.768,64957
518.054,-463.163,64917
518.017,-464.557,64900
517.979,-465.952,64831
517.942,-467.347,64896
517.904,-468.742,64904
517.867,-470.137,64775
517.83,-471.532,64901
517.792,-472.928,64758
517.755,-474.324,64795
517.717,-475.72,64617
517.68,-477.116,64700
517.642,-478.513,64612
517.605,-479.909,64325
517.568,-481.306,64670
517.53,-482.703,64577
517.493,-484.101,64511
517.455,-485.498,64568
517.418,-486.896,64507
517.38,-488.294,64346
517.343,-489.692,64635
517.306,-491.09,64569
517.268,-492.489,64626
517.231,-493.887,64326
517.193,-495.286,64537
517.156,-496.685,64639
517.119,-498.085,64466
517.081,-499.484,64276
517.044,-500.884,64487
517.006,-502.284,64372
516.969,-503.684,64536
516.931,-505.084,64493
516.894,-506.485,64373
516.857,-507.886,64502
516.819,-509.287,64458
516.782,-510.688,64444
516.744,-512.089,64357
516.707,-513.491,64361
516.669,-514.892,64389
516.632,-516.294,64329
516.595,-517.696,64555
516.557,-519.099,64391
516.52,-520.501,64492
516.482,-521.904,64309
516.445,-523.307,64500
516.407,-524.71,64458
516.37,-526.114,64470
516.333,-527.517,64349
516.295,-528.921,64264
516.258,-530.325,64370
516.22,-531.729,64275
516.183,-533.134,64425
516.146,-534.538,64383
516.108,-535.943,64327
516.071,-537.348,64355
516.033,-538.753,64319
515.996,-540.159,64358
515.958,-541.564,64392
515.921,-542.97,64362
515.884,-544.376,64219
515.846,-545.782,64387
515.809,-547.189,64416
515.771,-548.595,64426
515.734,-550.002,64348
515.696,-551.409,64234
515.659,-552.817,64161
515.622,-554.224,64248
515.584,-555.632,64371
515.547,-557.039,64198
515.509,-558.448,64341
515.472,-559.856,64223
515.435,-561.264,64241
515.397,-562.673,64268
515.36,-564.082,64333
515.322,-565.491,64157
515.285,-566.9,64106
515.247,-568.31,64252
515.21,-569.719,64192
515.173,-571.129,64134
515.135,-572.539,64178
515.098,-573.95,64220
515.06,-575.36,64206
515.023,-576.771,64379
514.985,-578.182,64209
514.948,-579.593,64339
514.911,-581.004,64151
514.873,-582.416,64115
514.836,-583.828,64113
514.798,-585.24,64209
514.761,-586.652,64089
514.723,-588.064,64199
514.686,-589.477,63916
514.649,-590.89,64105
514.611,-592.303,64082
514.574,-593.716,64050
514.536,-595.129,64106
514.499,-596.543,64173
514.462,-597.957,64103
514.424,-599.371,64046
514.387,-600.785,64194
514.349,-602.199,64103
514.312,-603.614,64135
514.274,-605.029,64024
514.237,-606.444,63890
514.2,-607.859,64076
514.162,-609.274,63873
514.125,-610.69,63956
514.087,-612.106,63908
514.05,-613.522,64119
514.012,-614.938,64063
513.975,-616.355,63890
513.938,-617.771,63768
513.9,-619.188,63956
513.863,-620.605,63996
513.825,-622.023,63963
513.788,-623.44,64061
513.751,-624.858,63967
513.713,-626.276,64035
513.676,-627.694,63995
513.638,-629.112,64018
513.601,-630.531,63894
513.563,-631.95,63845
513.526,-633.369,63909
513.489,-634.788,63941
513.451,-636.207,63940
513.414,-637.627,63940
513.376,-639.047,63934
513.339,-640.467,63845
513.301,-641.887,63812
513.264,-643.307,63656
513.227,-644.728,63748
513.189,-646.149,63852
513.152,-647.57,63689
513.114,-648.991,63697
513.077,-650.412,63730
513.04,-651.834,63852
513.002,-653.256,63625
512.965,-654.678,63750
512.927,-656.1,63753
512.89,-657.523,63655
512.852,-658.945,63808
512.815,-660.368,63707
512.778,-661.791,63719
512.74,-663.215,63681
512.703,-664.638,63693
512.665,-666.062,63554
512.628,-667.486,63513
512.59,-668.91,63611
512.553,-670.334,63590
512.516,-671.759,63670
512.478,-673.184,63569
512.441,-674.609,63721
512.403,-676.034,63627
512.366,-677.459,63584
512.328,-678.885,63530
512.291,-680.311,63550
512.254,-681.737,63511
512.216,-683.163,63461
512.179,-684.589,63500
512.141,-686.016,63600
512.104,-687.443,63669
512.067,-688.87,63742
512.029,-690.297,63492
511.992,-691.725,63676
511.954,-693.152,63542
511.917,-694.58,63594
511.879,-696.008,63487
511.842,-697.437,63249
511.805,-698.865,63437
511.767,-700.294,63518
511.73,-701.723,63311
511.692,-703.152,63358
511.655,-704.581,63310
511.617,-706.011,63443
511.58,-707.441,63437
511.543,-708.871,63411
511.505,-710.301,63439
511.468,-711.731,63536
511.43,-713.162,63510
511.393,-714.593,63517
511.356,-716.024,63535
511.318,-717.455,63341
511.281,-718.887,63400
511.243,-720.318,63357
511.206,-721.75,63291
511.168,-723.182,63318
511.131,-724.614,63262
511.094,-726.047,63299
511.056,-727.48,63224
511.019,-728.913,63149
510.981,-730.346,63313
510.944,-731.779,63183
510.906,-733.213,63273
510.869,-734.646,63333
510.832,-736.08,63369
510.794,-737.515,63396
510.757,-738.949,63324
510.719,-740.384,63296
510.682,-741.818,63320
510.644,-743.253,63184
510.607,-744.689,63230
510.57,-746.124,63269
510.532,-747.56,63183
510.495,-748.996,63087
510.457,-750.432,63068
510.42,-751.868,63150
510.383,-753.304,63178
510.345,-754.741,63088
510.308,-756.178,63144
510.27,-757.615,63173
510.233,-759.052,63069
510.195,-760.49,63154
510.158,-761.928,63177
510.121,-763.366,63150
510.083,-764.804,63002
510.046,-766.242,63206
510.008,-767.681,63173
509.971,-769.12,63087
509.933,-770.559,63002
509.896,-771.998,63051
509.859,-773.437,63134
509.821,-774.877,62988
509.784,-776.317,62992
509.746,-777.757,63107
509.709,-779.197,62883
509.672,-780.638,62905
509.634,-782.079,62970
509.597,-783.52,62943
509.559,-784.961,63012
509.522,-786.402,63038
509.484,-787.844,62872
509.447,-789.285,62868
509.41,-790.727,63029
509.372,-792.17,62921
509.335,-793.612,62959
509.297,-795.055,62872
509.26,-796.497,62925
509.222,-797.94,62837
509.185,-799.384,63002
509.148,-800.827,62956
509.11,-802.271,63033
509.073,-803.715,62908
509.035,-805.159,62841
508.998,-806.603,62843
508.96,-808.048,62814
508.923,-809.492,62936
508.886,-810.937,62852
508.848,-812.383,62867
508.811,-813.828,62735
508.773,-815.274,62821
508.736,-816.719,62837
508.699,-818.165,62848
508.661,-819.612,62791
525.339,-195.49,63082
525.301,-196.846,63230
525.264,-198.202,63303
525.227,-199.558,63250
525.189,-200.915,63371
525.152,-202.272,63170
525.114,-203.629,63183
525.077,-204.986,63000
525.04,-206.344,63158
525.002,-207.701,63254
524.965,-209.059,63136
524.927,-210.417,63370
524.89,-211.775,63298
524.852,-213.133,63275
524.815,-214.492,63357
524.778,-215.851,63325
524.74,-217.21,63439
524.703,-218.569,63449
524.665,-219.928,63287
524.628,-221.288,63375
524.59,-222.648,63232
524.553,-224.008,63500
524.516,-225.368,63265
524.478,-226.728,63444
524.441,-228.088,63397
524.403,-229.449,63323
524.366,-230.81,63293
524.328,-232.171,63458
524.291,-233.532,63423
524.254,-234.894,63408
524.216,-236.256,63373
524.179,-237.618,63496
524.141,-238.98,63505
524.104,-240.342,63348
524.067,-241.704,63640
524.029,-243.067,63426
523.992,-244.43,63432
523.954,-245.793,63469
523.917,-247.156,63524
523.879,-248.52,63278
523.842,-249.883,63544
523.805,-251.247,63503
523.767,-252.611,63393
523.73,-253.975,63602
523.692,-255.34,63668
523.655,-256.704,63663
523.617,-258.069,63698
523.58,-259.434,63618
523.543,-260.799,63745
523.505,-262.165,63838
523.468,-263.53,63930
523.43,-264.896,63971
523.393,-266.262,64313
523.356,-267.628,64354
523.318,-268.994,64560
523.281,-270.361,64681
523.243,-271.728,64839
523.206,-273.095,65329
523.168,-274.462,65375
523.131,-275.829,65812
523.094,-277.197,65798
523.056,-278.564,66270
523.019,-279.932,66369
522.981,-281.3,66509
522.944,-282.669,66787
522.906,-284.037,66923
522.869,-285.406,67181
522.832,-286.775,67029
522.794,-288.144,67210
522.757,-289.513,67327
522.719,-290.883,67361
522.682,-292.252,67490
522.644,-293.622,67007
522.607,-294.992,67398
522.57,-296.363,67433
522.532,-297.733,67438
522.495,-299.104,67510
522.457,-300.475,67488
522.42,-301.846,67402
522.383,-303.217,67789
522.345,-304.589,67493
522.308,-305.96,67597
522.27,-307.332,67512
522.233,-308.704,67473
522.195,-310.076,67448
522.158,-311.449,67497
522.121,-312.821,67335
522.083,-314.194,67518
522.046,-315.567,67227
522.008,-316.94,67474
521.971,-318.314,67267
521.933,-319.687,67105
521.896,-321.061,67349
521.859,-322.435,66996
521.821,-323.81,67210
521.784,-325.184,67236
521.746,-326.559,67038
521.709,-327.933,67211
521.672,-329.308,67140
521.634,-330.684,67068
521.597,-332.059,67006
521.559,-333.434,67093
521.522,-334.81,66961
521.484,-336.186,66972
521.447,-337.562,66899
521.41,-338.939,67156
521.372,-340.315,66765
521.335,-341.692,67194
521.297,-343.069,66770
521.26,-344.446,67054
521.222,-345.824,67035
521.185,-347.201,66835
521.148,-348.579,66947
521.11,-349.957,66671
521.073,-351.335,66989
521.035,-352.714,66892
520.998,-354.092,66784
520.96,-355.471,66738
520.923,-356.85,66681
520.886,-358.229,66826
520.848,-359.608,66615
520.811,-360.988,66720
520.773,-362.368,66568
520.736,-363.747,66610
520.699,-365.128,66507
520.661,-366.508,66530
520.624,-367.889,66468
520.586,-369.269,66386
520.549,-370.65,66360
520.511,-372.031,66307
520.474,-373.413,66287
520.437,-374.794,66380
520.399,-376.176,66296
520.362,-377.558,66248
520.324,-378.94,66464
520.287,-380.322,66162
520.249,-381.705,66352
520.212,-383.088,66160
520.175,-384.47,66256
520.137,-385.854,66156
520.1,-387.237,66129
520.062,-388.62,66113
520.025,-390.004,66166
519.988,-391.388,66243
519.95,-392.772,66000
519.913,-394.156,66071
519.875,-395.541,66056
519.838,-396.926,65916
519.8,-398.311,66087
519.763,-399.696,66080
519.726,-401.081,65905
519.688,-402.467,65920
519.651,-403.852,65876
519.613,-405.238,65682
519.576,-406.624,65851
519.538,-408.011,65795
519.501,-409.397,65769
519.464,-410.784,65861
519.426,-412.171,65680
519.389,-413.558,65782
519.351,-414.945,65642
519.314,-416.333,65649
519.277,-417.72,65639
519.239,-419.108,65609
519.202,-420.496,65654
519.164,-421.885,65622
519.127,-423.273,65410
519.089,-424.662,65419
519.052,-426.051,65585
519.015,-427.44,65385
518.977,-428.829,65246
518.94,-430.219,65313
518.902,-431.609,65453
518.865,-432.998,65205
518.827,-434.389,65209
518.79,-435.779,65257
518.753,-437.169,65340
518.715,-438.56,65199
518.678,-439.951,65102
518.64,-441.342,65125
518.603,-442.733,65127
518.565,-444.125,65084
518.528,-445.517,64869
518.491,-446.909,65004
518.453,-448.301,64830
518.416,-449.693,64849
518.378,-451.086,64938
518.341,-452.478,64965
518.304,-453.871,64928
518.266,-455.264,65004
518.229,-456.658,64837
518.191,-458.051,64765
518.154,-459.445,64989
518.116,-460.839,64597
518.079,-462.233,64893
518.042,-463.627,64684
518.004,-465.022,64677
517.967,-466.417,64614
517.929,-467.812,64664
517.892,-469.207,64578
517.854,-470.602,64477
517.817,-471.998,64509
517.78,-473.393,64585
517.742,-474.789,64675
517.705,-476.185,64522
517.667,-477.582,64666
517.63,-478.978,64605
517.593,-480.375,64404
517.555,-481.772,64455
517.518,-483.169,64527
517.48,-484.567,64253
517.443,-485.964,64525
517.405,-487.362,64303
517.368,-488.76,64423
517.331,-490.158,64323
517.293,-491.556,64517
517.256,-492.955,64308
517.218,-494.354,64222
517.181,-495.753,64192
517.143,-497.152,64400
517.106,-498.551,64381
517.069,-499.951,64376
517.031,-501.351,64275
516.994,-502.751,64095
516.956,-504.151,64235
516.919,-505.551,64220
516.881,-506.952,64261
516.844,-508.353,64304
516.807,-509.754,64323
516.769,-511.155,64253
516.732,-512.556,64401
516.694,-513.958,64329
516.657,-515.36,64094
516.62,-516.762,64206
516.582,-518.164,64244
516.545,-519.566,64348
516.507,-520.969,64123
516.47,-522.372,64185
516.432,-523.775,64228
516.395,-525.178,64243
516.358,-526.582,64366
516.32,-527.985,64249
516.283,-529.389,64183
516.245,-530.793,64213
516.208,-532.197,64100
516.17,-533.602,64229
516.133,-535.006,64031
516.096,-536.411,64056
516.058,-537.816,64136
516.021,-539.222,63924
515.983,-540.627,64099
515.946,-542.033,64221
515.909,-543.439,64166
515.871,-544.845,64100
515.834,-546.251,64216
515.796,-547.658,64031
515.759,-549.064,63988
515.721,-550.471,64120
515.684,-551.878,64159
515.647,-553.286,64293
515.609,-554.693,64213
515.572,-556.101,64094
515.534,-557.509,64128
515.497,-558.917,64044
515.459,-560.325,64112
515.422,-561.734,64040
515.385,-563.143,63981
515.347,-564.552,64086
515.31,-565.961,64042
515.272,-567.37,64069
515.235,-568.78,64192
515.198,-570.189,63986
515.16,-571.599,64056
515.123,-573.01,64004
515.085,-574.42,64067
515.048,-575.831,64137
515.01,-577.241,64025
514.973,-578.652,64018
514.936,-580.064,64076
514.898,-581.475,63913
514.861,-582.887,63979
514.823,-584.298,64021
514.786,-585.71,64074
514.748,-587.123,64017
514.711,-588.535,64056
514.674,-589.948,63978
514.636,-591.361,63980
514.599,-592.774,63924
514.561,-594.187,63924
514.524,-595.6,64083
514.486,-597.014,64027
514.449,-598.428,64021
514.412,-599.842,63718
514.374,-601.256,63767
514.337,-602.671,63807
514.299,-604.085,63821
514.262,-605.5,63904
514.225,-606.915,63879
514.187,-608.331,63959
514.15,-609.746,63762
514.112,-611.162,65248
514.075,-612.578,63910
514.037,-613.994,63836
514.0,-615.41,64028
513.963,-616.827,63691
513.925,-618.244,63847
513.888,-619.661,63780
513.85,-621.078,63841
513.813,-622.495,63754
513.775,-623.913,63757
513.738,-625.331,63866
513.701,-626.749,63942
513.663,-628.167,63767
513.626,-629.585,63727
513.588,-631.004,63758
513.551,-632.423,63884
513.514,-633.842,63802
513.476,-635.261,63567
513.439,-636.68,63681
513.401,-638.1,63670
513.364,-639.52,63709
513.326,-640.94,63648
513.289,-642.36,63682
513.252,-643.781,63596
513.214,-645.201,63688
513.177,-646.622,63620
513.139,-648.043,63528
513.102,-649.465,63694
513.064,-650.886,63650
513.027,-652.308,63759
512.99,-653.73,63574
512.952,-655.152,63590
512.915,-656.574,63578
512.877,-657.997,63635
512.84,-659.42,63551
512.802,-660.843,63527
512.765,-662.266,63548
512.728,-663.689,63513
512.69,-665.113,63534
512.653,-666.537,63300
512.615,-667.961,63548
512.578,-669.385,63661
512.541,-670.809,63517
512.503,-672.234,63498
512.466,-673.659,63383
512.428,-675.084,63598
512.391,-676.509,63471
512.353,-677.935,63469
512.316,-679.36,63451
512.279,-680.786,63316
512.241,-682.212,63493
512.204,-683.638,63363
512.166,-685.065,63440
512.129,-686.492,63465
512.091,-687.919,63431
512.054,-689.346,63374
512.017,-690.773,63428
511.979,-692.201,63426
511.942,-693.628,63230
511.904,-695.056,63470
511.867,-696.485,63389
511.83,-697.913,63157
511.792,-699.341,63361
511.755,-700.77,63278
511.717,-702.199,63447
511.68,-703.629,63444
511.642,-705.058,63225
511.605,-706.488,63201
511.568,-707.917,63380
511.53,-709.347,63323
511.493,-710.778,63385
511.455,-712.208,63210
511.418,-713.639,63274
511.38,-715.07,63224
511.343,-716.501,63192
511.306,-717.932,63290
511.268,-719.364,63231
511.231,-720.795,63264
511.193,-722.227,63160
511.156,-723.66,63156
511.119,-725.092,63126
511.081,-726.525,63225
511.044,-727.957,63263
511.006,-729.39,63157
510.969,-730.823,63128
510.931,-732.257,63207
510.894,-733.691,63108
510.857,-735.124,63061
510.819,-736.558,63137
510.782,-737.993,63117
510.744,-739.427,63088
510.707,-740.862,63118
510.669,-742.297,63150
510.632,-743.732,63124
510.595,-745.167,63029
510.557,-746.603,63143
510.52,-748.038,63012
510.482,-749.474,63165
510.445,-750.91,63198
510.407,-752.347,63077
510.37,-753.783,63027
510.333,-755.22,63074
510.295,-756.657,63026
510.258,-758.094,63063
510.22,-759.532,62896
510.183,-760.969,62994
510.146,-762.407,62871
510.108,-763.845,63002
510.071,-765.283,62964
510.033,-766.722,62977
509.996,-768.161,62814
509.958,-769.599,62969
509.921,-771.038,62900
509.884,-772.478,62920
509.846,-773.917,62992
509.809,-775.357,62987
509.771,-776.797,62899
509.734,-778.237,62982
509.696,-779.677,62993
509.659,-781.118,62790
509.622,-782.559,62925
509.584,-784,62945
509.547,-785.441,62923
509.509,-786.882,62783
509.472,-788.324,62824
509.435,-789.766,62965
509.397,-791.208,62851
509.36,-792.65,62769
509.322,-794.093,62849
509.285,-795.535,62932
509.247,-796.978,62669
509.21,-798.421,62677
509.173,-799.865,62751
509.135,-801.308,62786
509.098,-802.752,62678
509.06,-804.196,62825
509.023,-805.64,62772
508.985,-807.085,62806
508.948,-808.529,62832
508.911,-809.974,62763
508.873,-811.419,62649
508.836,-812.864,62752
508.798,-814.31,62658
508.761,-815.755,62803
508.723,-817.201,62665
508.686,-818.647,62637
508.661,-819.612,62723