File: tomke/20240809_Si_on_TiO2/20240809/raw_data/Si_onTiO2_0mA_30mW_30sec_4acc_517nm.txt
Wavelength(nm), Raman shift(cm^-1), Intensity(counts)
524.12,-239.756,59662
524.078,-241.303,60027
524.035,-242.849,59991
523.993,-244.396,59925
523.95,-245.943,59970
523.908,-247.491,59994
523.865,-249.038,60024
523.823,-250.586,60030
523.78,-252.134,60032
523.738,-253.683,60018
523.695,-255.231,60005
523.653,-256.78,59984
523.61,-258.329,59871
523.568,-259.879,60020
523.525,-261.428,59942
523.483,-262.978,59983
523.44,-264.528,60043
523.398,-266.079,60036
523.355,-267.629,59941
523.313,-269.18,59949
523.271,-270.732,60003
523.228,-272.283,59940
523.186,-273.835,60006
523.143,-275.387,59985
523.101,-276.939,60060
523.058,-278.491,59970
523.016,-280.044,60002
522.973,-281.597,60043
522.931,-283.15,59997
522.888,-284.703,59958
522.846,-286.257,59957
522.803,-287.811,60026
522.761,-289.365,60009
522.718,-290.92,59992
522.676,-292.474,60014
522.633,-294.029,59950
522.591,-295.584,60007
522.548,-297.14,59987
522.506,-298.695,59880
522.463,-300.251,59953
522.421,-301.808,60023
522.379,-303.364,60017
522.336,-304.921,60050
522.294,-306.478,60074
522.251,-308.035,60078
522.209,-309.592,60162
522.166,-311.15,60048
522.124,-312.708,60174
522.081,-314.266,60154
522.039,-315.825,60183
521.996,-317.384,60249
521.954,-318.943,60174
521.911,-320.502,60170
521.869,-322.061,60157
521.826,-323.621,60199
521.784,-325.181,60165
521.741,-326.741,60213
521.699,-328.302,60254
521.656,-329.863,60257
521.614,-331.424,60283
521.571,-332.985,60307
521.529,-334.547,60334
521.487,-336.108,60182
521.444,-337.67,60196
521.402,-339.233,60149
521.359,-340.795,60200
521.317,-342.358,60128
521.274,-343.921,60146
521.232,-345.484,60253
521.189,-347.048,60217
521.147,-348.612,60236
521.104,-350.176,60158
521.062,-351.74,60221
521.019,-353.305,60200
520.977,-354.87,60171
520.934,-356.435,60170
520.892,-358,60202
520.849,-359.566,60167
520.807,-361.132,60150
520.764,-362.698,60100
520.722,-364.264,60097
520.679,-365.831,60151
520.637,-367.398,60121
520.595,-368.965,60035
520.552,-370.532,60142
520.51,-372.1,60054
520.467,-373.668,60203
520.425,-375.236,60059
520.382,-376.804,60089
520.34,-378.373,60140
520.297,-379.942,60067
520.255,-381.511,60121
520.212,-383.081,60124
520.17,-384.65,60140
520.127,-386.22,60058
520.085,-387.79,60084
520.042,-389.361,60018
520,-390.932,59987
519.957,-392.503,60072
519.915,-394.074,60070
519.872,-395.645,60071
519.83,-397.217,60048
519.787,-398.789,60167
519.745,-400.361,60079
519.703,-401.934,60043
519.66,-403.507,60089
519.618,-405.08,60074
519.575,-406.653,60113
519.533,-408.227,60023
519.49,-409.8,60006
519.448,-411.375,60132
519.405,-412.949,60106
519.363,-414.523,60054
519.32,-416.098,59988
519.278,-417.673,60140
519.235,-419.249,60022
519.193,-420.824,60076
519.15,-422.4,60040
519.108,-423.976,60082
519.065,-425.553,60108
519.023,-427.129,60172
518.98,-428.706,60020
518.938,-430.283,60035
518.895,-431.861,60077
518.853,-433.439,60062
518.811,-435.017,60027
518.768,-436.595,60066
518.726,-438.173,60104
518.683,-439.752,60087
518.641,-441.331,60064
518.598,-442.91,60001
518.556,-444.49,60062
518.513,-446.069,60130
518.471,-447.649,60063
518.428,-449.23,60009
518.386,-450.81,60101
518.343,-452.391,60088
518.301,-453.972,60025
518.258,-455.553,59999
518.216,-457.135,60075
518.173,-458.717,59981
518.131,-460.299,59971
518.088,-461.881,60015
518.046,-463.464,59996
518.003,-465.047,60012
517.961,-466.63,60012
517.919,-468.213,60051
517.876,-469.797,60029
517.834,-471.381,59941
517.791,-472.965,60090
517.749,-474.549,60103
517.706,-476.134,60006
517.664,-477.719,59982
517.621,-479.304,60036
517.579,-480.889,59976
517.536,-482.475,60008
517.494,-484.061,60080
517.451,-485.647,60042
517.409,-487.234,60064
517.366,-488.821,60067
517.324,-490.408,60029
517.281,-491.995,60063
517.239,-493.582,60064
517.196,-495.17,60031
517.154,-496.758,60155
517.111,-498.347,60037
517.069,-499.935,60101
517.027,-501.524,60023
516.984,-503.113,60120
516.942,-504.703,60120
516.899,-506.292,60186
516.857,-507.882,60197
516.814,-509.472,60311
516.772,-511.063,60390
516.729,-512.653,60813
516.687,-514.244,61664
516.644,-515.835,64529
516.602,-517.427,67003
516.559,-519.019,66714
516.517,-520.611,64060
516.474,-522.203,61940
516.432,-523.795,60950
516.389,-525.388,60527
516.347,-526.981,60294
516.304,-528.575,60154
516.262,-530.168,60086
516.22,-531.762,60107
516.177,-533.356,60118
516.135,-534.95,60054
516.092,-536.545,60035
516.05,-538.14,60091
516.007,-539.735,60113
515.965,-541.33,60083
515.922,-542.926,60013
515.88,-544.522,60004
515.837,-546.118,59987
515.795,-547.715,59975
515.752,-549.311,60072
515.71,-550.908,59987
515.667,-552.505,60061
515.625,-554.103,60046
515.582,-555.701,60035
515.54,-557.299,59992
515.497,-558.897,60033
515.455,-560.496,60102
515.412,-562.094,60013
515.37,-563.693,60041
515.328,-565.293,60036
515.285,-566.892,59917
515.243,-568.492,60021
515.2,-570.092,60054
515.158,-571.693,59994
515.115,-573.293,60002
515.073,-574.894,60113
515.03,-576.496,59904
514.988,-578.097,60057
514.945,-579.699,60063
514.903,-581.301,59913
514.86,-582.903,59951
514.818,-584.505,59990
514.775,-586.108,59965
514.733,-587.711,59962
514.69,-589.315,59989
514.648,-590.918,60034
514.605,-592.522,59974
514.563,-594.126,59979
514.52,-595.73,60079
514.478,-597.335,60014
514.436,-598.94,60000
514.393,-600.545,60019
514.351,-602.151,60004
514.308,-603.756,59981
514.266,-605.362,60062
514.223,-606.968,60077
514.181,-608.575,59966
514.138,-610.182,60061
514.096,-611.789,60053
514.053,-613.396,60022
514.011,-615.003,60120
513.968,-616.611,60011
513.926,-618.219,60023
513.883,-619.828,59959
513.841,-621.436,60048
513.798,-623.045,60069
513.756,-624.654,59995
513.713,-626.264,60068
513.671,-627.873,60022
513.628,-629.483,59940
513.586,-631.094,60000
513.544,-632.704,60047
513.501,-634.315,59980
513.459,-635.926,60030
513.416,-637.537,59998
513.374,-639.149,60046
513.331,-640.76,60064
513.289,-642.372,60022
513.246,-643.985,59995
513.204,-645.597,59998
513.161,-647.21,60023
513.119,-648.823,59994
513.076,-650.437,60017
513.034,-652.05,59992
512.991,-653.664,60039
512.949,-655.279,59959
512.906,-656.893,60038
512.864,-658.508,59949
512.821,-660.123,60076
512.779,-661.738,59930
512.736,-663.354,59921
512.694,-664.97,60038
512.652,-666.586,60070
512.609,-668.202,59969
512.567,-669.819,59930
512.524,-671.435,60001
512.482,-673.053,60012
512.439,-674.67,60045
512.397,-676.288,59948
512.354,-677.906,60001
512.312,-679.524,59961
512.269,-681.142,60120
512.227,-682.761,59962
512.184,-684.38,59976
512.142,-685.999,59980
512.099,-687.619,59975
512.057,-689.239,59994
512.014,-690.859,60035
511.972,-692.479,60026
511.929,-694.1,59972
511.887,-695.721,59926
511.844,-697.342,59973
511.802,-698.964,59875
511.76,-700.585,59969
511.717,-702.207,60014
511.675,-703.83,59953
511.632,-705.452,60021
511.59,-707.075,59931
511.547,-708.698,60032
511.505,-710.321,60047
511.462,-711.945,59936
511.42,-713.569,59976
511.377,-715.193,60031
511.335,-716.817,60051
511.292,-718.442,59999
511.25,-720.067,60029
511.207,-721.692,59948
511.165,-723.318,60069
511.122,-724.943,59987
511.08,-726.569,59967
511.037,-728.196,59914
510.995,-729.822,60014
510.952,-731.449,59992
510.91,-733.076,59993
510.868,-734.704,59934
510.825,-736.331,60114
510.783,-737.959,60051
510.74,-739.587,60039
510.698,-741.216,60063
510.655,-742.845,60004
510.613,-744.474,60008
510.57,-746.103,60014
510.528,-747.733,60051
510.485,-749.362,59891
510.443,-750.992,59900
510.4,-752.623,60052
510.358,-754.253,60009
510.315,-755.884,60013
510.273,-757.516,60059
510.23,-759.147,59970
510.188,-760.779,60033
510.145,-762.411,60003
510.103,-764.043,59960
510.06,-765.676,59923
510.018,-767.308,59976
509.976,-768.941,59966
509.933,-770.575,59964
524.12,-239.756,59855
524.078,-241.303,60087
524.035,-242.849,60109
523.993,-244.396,59948
523.95,-245.943,60012
523.908,-247.491,59977
523.865,-249.038,59926
523.823,-250.586,59976
523.78,-252.134,59954
523.738,-253.683,60055
523.695,-255.231,60093
523.653,-256.78,60000
523.61,-258.329,59966
523.568,-259.879,60084
523.525,-261.428,60008
523.483,-262.978,59971
523.44,-264.528,59995
523.398,-266.079,59967
523.355,-267.629,60040
523.313,-269.18,59916
523.271,-270.732,59985
523.228,-272.283,59915
523.186,-273.835,59925
523.143,-275.387,59939
523.101,-276.939,59910
523.058,-278.491,59909
523.016,-280.044,60047
522.973,-281.597,60000
522.931,-283.15,59976
522.888,-284.703,59907
522.846,-286.257,60054
522.803,-287.811,59957
522.761,-289.365,60061
522.718,-290.92,60042
522.676,-292.474,60025
522.633,-294.029,60029
522.591,-295.584,59953
522.548,-297.14,59921
522.506,-298.695,59953
522.463,-300.251,59992
522.421,-301.808,60079
522.379,-303.364,59985
522.336,-304.921,59975
522.294,-306.478,60097
522.251,-308.035,60137
522.209,-309.592,60051
522.166,-311.15,60145
522.124,-312.708,60153
522.081,-314.266,60176
522.039,-315.825,60230
521.996,-317.384,60142
521.954,-318.943,60230
521.911,-320.502,60170
521.869,-322.061,60220
521.826,-323.621,60263
521.784,-325.181,60200
521.741,-326.741,60217
521.699,-328.302,60287
521.656,-329.863,60273
521.614,-331.424,60344
521.571,-332.985,60331
521.529,-334.547,60288
521.487,-336.108,60294
521.444,-337.67,60193
521.402,-339.233,60210
521.359,-340.795,60260
521.317,-342.358,60236
521.274,-343.921,60239
521.232,-345.484,60213
521.189,-347.048,60198
521.147,-348.612,60199
521.104,-350.176,60331
521.062,-351.74,60297
521.019,-353.305,60228
520.977,-354.87,60242
520.934,-356.435,60220
520.892,-358,60204
520.849,-359.566,60150
520.807,-361.132,60142
520.764,-362.698,60073
520.722,-364.264,60203
520.679,-365.831,60095
520.637,-367.398,60099
520.595,-368.965,60083
520.552,-370.532,60030
520.51,-372.1,60083
520.467,-373.668,60057
520.425,-375.236,60101
520.382,-376.804,60087
520.34,-378.373,60094
520.297,-379.942,60066
520.255,-381.511,60121
520.212,-383.081,60102
520.17,-384.65,60074
520.127,-386.22,60075
520.085,-387.79,60121
520.042,-389.361,60022
520,-390.932,60099
519.957,-392.503,60191
519.915,-394.074,60138
519.872,-395.645,60070
519.83,-397.217,60071
519.787,-398.789,60067
519.745,-400.361,60015
519.703,-401.934,60122
519.66,-403.507,60098
519.618,-405.08,60049
519.575,-406.653,60146
519.533,-408.227,60057
519.49,-409.8,60086
519.448,-411.375,60073
519.405,-412.949,60083
519.363,-414.523,60112
519.32,-416.098,60060
519.278,-417.673,60117
519.235,-419.249,60092
519.193,-420.824,59984
519.15,-422.4,60071
519.108,-423.976,60115
519.065,-425.553,60095
519.023,-427.129,60127
518.98,-428.706,60054
518.938,-430.283,60051
518.895,-431.861,60083
518.853,-433.439,60089
518.811,-435.017,60099
518.768,-436.595,60113
518.726,-438.173,60089
518.683,-439.752,60095
518.641,-441.331,60005
518.598,-442.91,60036
518.556,-444.49,60079
518.513,-446.069,60090
518.471,-447.649,60108
518.428,-449.23,59986
518.386,-450.81,60040
518.343,-452.391,60114
518.301,-453.972,60011
518.258,-455.553,59989
518.216,-457.135,60077
518.173,-458.717,60034
518.131,-460.299,60034
518.088,-461.881,60052
518.046,-463.464,60018
518.003,-465.047,60031
517.961,-466.63,60019
517.919,-468.213,60044
517.876,-469.797,60002
517.834,-471.381,60028
517.791,-472.965,60119
517.749,-474.549,60007
517.706,-476.134,60048
517.664,-477.719,60039
517.621,-479.304,59987
517.579,-480.889,59938
517.536,-482.475,60062
517.494,-484.061,60054
517.451,-485.647,59958
517.409,-487.234,59987
517.366,-488.821,60071
517.324,-490.408,60042
517.281,-491.995,60093
517.239,-493.582,60074
517.196,-495.17,60051
517.154,-496.758,59993
517.111,-498.347,60111
517.069,-499.935,60079
517.027,-501.524,60078
516.984,-503.113,60192
516.942,-504.703,60097
516.899,-506.292,60136
516.857,-507.882,60253
516.814,-509.472,60294
516.772,-511.063,60522
516.729,-512.653,60659
516.687,-514.244,61652
516.644,-515.835,64242
516.602,-517.427,67008
516.559,-519.019,66650
516.517,-520.611,63882
516.474,-522.203,62075
516.432,-523.795,61053
516.389,-525.388,60527
516.347,-526.981,60364
516.304,-528.575,60309
516.262,-530.168,60078
516.22,-531.762,60194
516.177,-533.356,60121
516.135,-534.95,60113
516.092,-536.545,60093
516.05,-538.14,60087
516.007,-539.735,60020
515.965,-541.33,59980
515.922,-542.926,60162
515.88,-544.522,60096
515.837,-546.118,59962
515.795,-547.715,59973
515.752,-549.311,60018
515.71,-550.908,60035
515.667,-552.505,60067
515.625,-554.103,60088
515.582,-555.701,60147
515.54,-557.299,60021
515.497,-558.897,60086
515.455,-560.496,59972
515.412,-562.094,60012
515.37,-563.693,60056
515.328,-565.293,59997
515.285,-566.892,60059
515.243,-568.492,60059
515.2,-570.092,59999
515.158,-571.693,60000
515.115,-573.293,60001
515.073,-574.894,60038
515.03,-576.496,60029
514.988,-578.097,60073
514.945,-579.699,60025
514.903,-581.301,59965
514.86,-582.903,60007
514.818,-584.505,59987
514.775,-586.108,60017
514.733,-587.711,60091
514.69,-589.315,60044
514.648,-590.918,59961
514.605,-592.522,60010
514.563,-594.126,60067
514.52,-595.73,60044
514.478,-597.335,59964
514.436,-598.94,60032
514.393,-600.545,60040
514.351,-602.151,60036
514.308,-603.756,60012
514.266,-605.362,60057
514.223,-606.968,60005
514.181,-608.575,60102
514.138,-610.182,60013
514.096,-611.789,60029
514.053,-613.396,60097
514.011,-615.003,60092
513.968,-616.611,59977
513.926,-618.219,60066
513.883,-619.828,59988
513.841,-621.436,60038
513.798,-623.045,60109
513.756,-624.654,60055
513.713,-626.264,59959
513.671,-627.873,59995
513.628,-629.483,60061
513.586,-631.094,60052
513.544,-632.704,60059
513.501,-634.315,60063
513.459,-635.926,60078
513.416,-637.537,60035
513.374,-639.149,60075
513.331,-640.76,60026
513.289,-642.372,59961
513.246,-643.985,60028
513.204,-645.597,60028
513.161,-647.21,59959
513.119,-648.823,60063
513.076,-650.437,60047
513.034,-652.05,59996
512.991,-653.664,60055
512.949,-655.279,60013
512.906,-656.893,59961
512.864,-658.508,60042
512.821,-660.123,59902
512.779,-661.738,60066
512.736,-663.354,60027
512.694,-664.97,60005
512.652,-666.586,59954
512.609,-668.202,60006
512.567,-669.819,60029
512.524,-671.435,60011
512.482,-673.053,60050
512.439,-674.67,60058
512.397,-676.288,59973
512.354,-677.906,60054
512.312,-679.524,60004
512.269,-681.142,59957
512.227,-682.761,59942
512.184,-684.38,60038
512.142,-685.999,59912
512.099,-687.619,59982
512.057,-689.239,59995
512.014,-690.859,60027
511.972,-692.479,59939
511.929,-694.1,59978
511.887,-695.721,59964
511.844,-697.342,59982
511.802,-698.964,59972
511.76,-700.585,60045
511.717,-702.207,59991
511.675,-703.83,60048
511.632,-705.452,59999
511.59,-707.075,59984
511.547,-708.698,60000
511.505,-710.321,60058
511.462,-711.945,59985
511.42,-713.569,60039
511.377,-715.193,60058
511.335,-716.817,60042
511.292,-718.442,59973
511.25,-720.067,60049
511.207,-721.692,59978
511.165,-723.318,60012
511.122,-724.943,59977
511.08,-726.569,60012
511.037,-728.196,59967
510.995,-729.822,60039
510.952,-731.449,60017
510.91,-733.076,60021
510.868,-734.704,59979
510.825,-736.331,60009
510.783,-737.959,59971
510.74,-739.587,60022
510.698,-741.216,59911
510.655,-742.845,60025
510.613,-744.474,60008
510.57,-746.103,60052
510.528,-747.733,60021
510.485,-749.362,60080
510.443,-750.992,59975
510.4,-752.623,59990
510.358,-754.253,59985
510.315,-755.884,60058
510.273,-757.516,59921
510.23,-759.147,60049
510.188,-760.779,59991
510.145,-762.411,60029
510.103,-764.043,59946
510.06,-765.676,59959
510.018,-767.308,60002
509.976,-768.941,60026
509.933,-770.575,59963
524.12,-239.756,59764
524.078,-241.303,60110
524.035,-242.849,60004
523.993,-244.396,60000
523.95,-245.943,59983
523.908,-247.491,60062
523.865,-249.038,59912
523.823,-250.586,59998
523.78,-252.134,60061
523.738,-253.683,59975
523.695,-255.231,60051
523.653,-256.78,59967
523.61,-258.329,60081
523.568,-259.879,60069
523.525,-261.428,59933
523.483,-262.978,59959
523.44,-264.528,59977
523.398,-266.079,59900
523.355,-267.629,60035
523.313,-269.18,59982
523.271,-270.732,60062
523.228,-272.283,60007
523.186,-273.835,60050
523.143,-275.387,59995
523.101,-276.939,60035
523.058,-278.491,59949
523.016,-280.044,60026
522.973,-281.597,59996
522.931,-283.15,60088
522.888,-284.703,59936
522.846,-286.257,60020
522.803,-287.811,60081
522.761,-289.365,60111
522.718,-290.92,60001
522.676,-292.474,60023
522.633,-294.029,60006
522.591,-295.584,60026
522.548,-297.14,59952
522.506,-298.695,60019
522.463,-300.251,60028
522.421,-301.808,59994
522.379,-303.364,60030
522.336,-304.921,60048
522.294,-306.478,60114
522.251,-308.035,60034
522.209,-309.592,60180
522.166,-311.15,60133
522.124,-312.708,60193
522.081,-314.266,60178
522.039,-315.825,60178
521.996,-317.384,60106
521.954,-318.943,60142
521.911,-320.502,60245
521.869,-322.061,60193
521.826,-323.621,60104
521.784,-325.181,60219
521.741,-326.741,60281
521.699,-328.302,60271
521.656,-329.863,60164
521.614,-331.424,60333
521.571,-332.985,60284
521.529,-334.547,60242
521.487,-336.108,60340
521.444,-337.67,60224
521.402,-339.233,60212
521.359,-340.795,60176
521.317,-342.358,60183
521.274,-343.921,60111
521.232,-345.484,60276
521.189,-347.048,60137
521.147,-348.612,60284
521.104,-350.176,60142
521.062,-351.74,60258
521.019,-353.305,60221
520.977,-354.87,60117
520.934,-356.435,60172
520.892,-358,60201
520.849,-359.566,60124
520.807,-361.132,60260
520.764,-362.698,60119
520.722,-364.264,60095
520.679,-365.831,60124
520.637,-367.398,60230
520.595,-368.965,60141
520.552,-370.532,60102
520.51,-372.1,60135
520.467,-373.668,60092
520.425,-375.236,60145
520.382,-376.804,60063
520.34,-378.373,60072
520.297,-379.942,60226
520.255,-381.511,60047
520.212,-383.081,60080
520.17,-384.65,60106
520.127,-386.22,60045
520.085,-387.79,60088
520.042,-389.361,60093
520,-390.932,60050
519.957,-392.503,60123
519.915,-394.074,60078
519.872,-395.645,60073
519.83,-397.217,60096
519.787,-398.789,60140
519.745,-400.361,60108
519.703,-401.934,60113
519.66,-403.507,60037
519.618,-405.08,60112
519.575,-406.653,60083
519.533,-408.227,60121
519.49,-409.8,60089
519.448,-411.375,60063
519.405,-412.949,60030
519.363,-414.523,60089
519.32,-416.098,60056
519.278,-417.673,60042
519.235,-419.249,60027
519.193,-420.824,60089
519.15,-422.4,60092
519.108,-423.976,60043
519.065,-425.553,60004
519.023,-427.129,60078
518.98,-428.706,60087
518.938,-430.283,60054
518.895,-431.861,60077
518.853,-433.439,60047
518.811,-435.017,60018
518.768,-436.595,60059
518.726,-438.173,60124
518.683,-439.752,60030
518.641,-441.331,60012
518.598,-442.91,60067
518.556,-444.49,60055
518.513,-446.069,60072
518.471,-447.649,60086
518.428,-449.23,60038
518.386,-450.81,60000
518.343,-452.391,60069
518.301,-453.972,60059
518.258,-455.553,60044
518.216,-457.135,60045
518.173,-458.717,59992
518.131,-460.299,60109
518.088,-461.881,59983
518.046,-463.464,60001
518.003,-465.047,59967
517.961,-466.63,59990
517.919,-468.213,60045
517.876,-469.797,60073
517.834,-471.381,59985
517.791,-472.965,59927
517.749,-474.549,60005
517.706,-476.134,60080
517.664,-477.719,59987
517.621,-479.304,60072
517.579,-480.889,60033
517.536,-482.475,60027
517.494,-484.061,60063
517.451,-485.647,59989
517.409,-487.234,59996
517.366,-488.821,60132
517.324,-490.408,59977
517.281,-491.995,60060
517.239,-493.582,60000
517.196,-495.17,60048
517.154,-496.758,60067
517.111,-498.347,60020
517.069,-499.935,60107
517.027,-501.524,60070
516.984,-503.113,60091
516.942,-504.703,60167
516.899,-506.292,60080
516.857,-507.882,60166
516.814,-509.472,60267
516.772,-511.063,60522
516.729,-512.653,60805
516.687,-514.244,61735
516.644,-515.835,64404
516.602,-517.427,67009
516.559,-519.019,66598
516.517,-520.611,63943
516.474,-522.203,62033
516.432,-523.795,61001
516.389,-525.388,60374
516.347,-526.981,60214
516.304,-528.575,60255
516.262,-530.168,60058
516.22,-531.762,60140
516.177,-533.356,60105
516.135,-534.95,60159
516.092,-536.545,60159
516.05,-538.14,60057
516.007,-539.735,60118
515.965,-541.33,60085
515.922,-542.926,60066
515.88,-544.522,60036
515.837,-546.118,60007
515.795,-547.715,60082
515.752,-549.311,59919
515.71,-550.908,60080
515.667,-552.505,60124
515.625,-554.103,60074
515.582,-555.701,60067
515.54,-557.299,60053
515.497,-558.897,60048
515.455,-560.496,60035
515.412,-562.094,59952
515.37,-563.693,60090
515.328,-565.293,60042
515.285,-566.892,60033
515.243,-568.492,60021
515.2,-570.092,59956
515.158,-571.693,59951
515.115,-573.293,60011
515.073,-574.894,60027
515.03,-576.496,59956
514.988,-578.097,59980
514.945,-579.699,60096
514.903,-581.301,60068
514.86,-582.903,60124
514.818,-584.505,59982
514.775,-586.108,60106
514.733,-587.711,60119
514.69,-589.315,60002
514.648,-590.918,60147
514.605,-592.522,60022
514.563,-594.126,60096
514.52,-595.73,60105
514.478,-597.335,60022
514.436,-598.94,60009
514.393,-600.545,60039
514.351,-602.151,60049
514.308,-603.756,60034
514.266,-605.362,59951
514.223,-606.968,60044
514.181,-608.575,59966
514.138,-610.182,60072
514.096,-611.789,60001
514.053,-613.396,59908
514.011,-615.003,60010
513.968,-616.611,59963
513.926,-618.219,60062
513.883,-619.828,60012
513.841,-621.436,60075
513.798,-623.045,60064
513.756,-624.654,60014
513.713,-626.264,60015
513.671,-627.873,59984
513.628,-629.483,60002
513.586,-631.094,60024
513.544,-632.704,59916
513.501,-634.315,60090
513.459,-635.926,60043
513.416,-637.537,59999
513.374,-639.149,60024
513.331,-640.76,60001
513.289,-642.372,59957
513.246,-643.985,59942
513.204,-645.597,60036
513.161,-647.21,59967
513.119,-648.823,59979
513.076,-650.437,60036
513.034,-652.05,60000
512.991,-653.664,59998
512.949,-655.279,60037
512.906,-656.893,60031
512.864,-658.508,60023
512.821,-660.123,60030
512.779,-661.738,59959
512.736,-663.354,60001
512.694,-664.97,60074
512.652,-666.586,59996
512.609,-668.202,60008
512.567,-669.819,60039
512.524,-671.435,60073
512.482,-673.053,59930
512.439,-674.67,59974
512.397,-676.288,59976
512.354,-677.906,59991
512.312,-679.524,60018
512.269,-681.142,60037
512.227,-682.761,59963
512.184,-684.38,60020
512.142,-685.999,60028
512.099,-687.619,60110
512.057,-689.239,60028
512.014,-690.859,59958
511.972,-692.479,59911
511.929,-694.1,59990
511.887,-695.721,59988
511.844,-697.342,60002
511.802,-698.964,60050
511.76,-700.585,59951
511.717,-702.207,59992
511.675,-703.83,59987
511.632,-705.452,59992
511.59,-707.075,60030
511.547,-708.698,59972
511.505,-710.321,60004
511.462,-711.945,59965
511.42,-713.569,59993
511.377,-715.193,60000
511.335,-716.817,59928
511.292,-718.442,59974
511.25,-720.067,59935
511.207,-721.692,59957
511.165,-723.318,60062
511.122,-724.943,60056
511.08,-726.569,60064
511.037,-728.196,59975
510.995,-729.822,60054
510.952,-731.449,59996
510.91,-733.076,59960
510.868,-734.704,59994
510.825,-736.331,59977
510.783,-737.959,59964
510.74,-739.587,60017
510.698,-741.216,60045
510.655,-742.845,60014
510.613,-744.474,60060
510.57,-746.103,59973
510.528,-747.733,60049
510.485,-749.362,60067
510.443,-750.992,60001
510.4,-752.623,60004
510.358,-754.253,60015
510.315,-755.884,59976
510.273,-757.516,59992
510.23,-759.147,60004
510.188,-760.779,60030
510.145,-762.411,60035
510.103,-764.043,60039
510.06,-765.676,60013
510.018,-767.308,60041
509.976,-768.941,59982
509.933,-770.575,59971
524.12,-239.756,59688
524.078,-241.303,60024
524.035,-242.849,59941
523.993,-244.396,59999
523.95,-245.943,60034
523.908,-247.491,60040
523.865,-249.038,59998
523.823,-250.586,60055
523.78,-252.134,60024
523.738,-253.683,60059
523.695,-255.231,59969
523.653,-256.78,60063
523.61,-258.329,59954
523.568,-259.879,60034
523.525,-261.428,60056
523.483,-262.978,60011
523.44,-264.528,59988
523.398,-266.079,60035
523.355,-267.629,60045
523.313,-269.18,59952
523.271,-270.732,59984
523.228,-272.283,60047
523.186,-273.835,60014
523.143,-275.387,59968
523.101,-276.939,60053
523.058,-278.491,60071
523.016,-280.044,59946
522.973,-281.597,60064
522.931,-283.15,59981
522.888,-284.703,60039
522.846,-286.257,59955
522.803,-287.811,60024
522.761,-289.365,60045
522.718,-290.92,60033
522.676,-292.474,60029
522.633,-294.029,60011
522.591,-295.584,60007
522.548,-297.14,59937
522.506,-298.695,60003
522.463,-300.251,60042
522.421,-301.808,60053
522.379,-303.364,59979
522.336,-304.921,60030
522.294,-306.478,60066
522.251,-308.035,60106
522.209,-309.592,60093
522.166,-311.15,60214
522.124,-312.708,60207
522.081,-314.266,60070
522.039,-315.825,60134
521.996,-317.384,60158
521.954,-318.943,60256
521.911,-320.502,60251
521.869,-322.061,60221
521.826,-323.621,60242
521.784,-325.181,60220
521.741,-326.741,60206
521.699,-328.302,60228
521.656,-329.863,60250
521.614,-331.424,60316
521.571,-332.985,60296
521.529,-334.547,60327
521.487,-336.108,60276
521.444,-337.67,60296
521.402,-339.233,60238
521.359,-340.795,60302
521.317,-342.358,60181
521.274,-343.921,60224
521.232,-345.484,60245
521.189,-347.048,60240
521.147,-348.612,60225
521.104,-350.176,60232
521.062,-351.74,60269
521.019,-353.305,60235
520.977,-354.87,60252
520.934,-356.435,60180
520.892,-358,60152
520.849,-359.566,60122
520.807,-361.132,60160
520.764,-362.698,60248
520.722,-364.264,60086
520.679,-365.831,60106
520.637,-367.398,60203
520.595,-368.965,60137
520.552,-370.532,60103
520.51,-372.1,60142
520.467,-373.668,60169
520.425,-375.236,60099
520.382,-376.804,60082
520.34,-378.373,60163
520.297,-379.942,60128
520.255,-381.511,60094
520.212,-383.081,60143
520.17,-384.65,60141
520.127,-386.22,60101
520.085,-387.79,60043
520.042,-389.361,60067
520,-390.932,75119
519.957,-392.503,60111
519.915,-394.074,60119
519.872,-395.645,60053
519.83,-397.217,60006
519.787,-398.789,60066
519.745,-400.361,60012
519.703,-401.934,60118
519.66,-403.507,60122
519.618,-405.08,60083
519.575,-406.653,60121
519.533,-408.227,60076
519.49,-409.8,60056
519.448,-411.375,60085
519.405,-412.949,60124
519.363,-414.523,60002
519.32,-416.098,60138
519.278,-417.673,60054
519.235,-419.249,60108
519.193,-420.824,60084
519.15,-422.4,60082
519.108,-423.976,60118
519.065,-425.553,60160
519.023,-427.129,60111
518.98,-428.706,60033
518.938,-430.283,60044
518.895,-431.861,60138
518.853,-433.439,60083
518.811,-435.017,60004
518.768,-436.595,60006
518.726,-438.173,60020
518.683,-439.752,60182
518.641,-441.331,60072
518.598,-442.91,60071
518.556,-444.49,60090
518.513,-446.069,60098
518.471,-447.649,60066
518.428,-449.23,59959
518.386,-450.81,60102
518.343,-452.391,60035
518.301,-453.972,60149
518.258,-455.553,60085
518.216,-457.135,59968
518.173,-458.717,60025
518.131,-460.299,60044
518.088,-461.881,59985
518.046,-463.464,59995
518.003,-465.047,60026
517.961,-466.63,60000
517.919,-468.213,60049
517.876,-469.797,59994
517.834,-471.381,60008
517.791,-472.965,60172
517.749,-474.549,59994
517.706,-476.134,60073
517.664,-477.719,60014
517.621,-479.304,60066
517.579,-480.889,60053
517.536,-482.475,60026
517.494,-484.061,60027
517.451,-485.647,60004
517.409,-487.234,60007
517.366,-488.821,60015
517.324,-490.408,60112
517.281,-491.995,60071
517.239,-493.582,60023
517.196,-495.17,60107
517.154,-496.758,60050
517.111,-498.347,60042
517.069,-499.935,60133
517.027,-501.524,60144
516.984,-503.113,60127
516.942,-504.703,60135
516.899,-506.292,60135
516.857,-507.882,60218
516.814,-509.472,60285
516.772,-511.063,60383
516.729,-512.653,60812
516.687,-514.244,61622
516.644,-515.835,64228
516.602,-517.427,66928
516.559,-519.019,66776
516.517,-520.611,63969
516.474,-522.203,62037
516.432,-523.795,60956
516.389,-525.388,60509
516.347,-526.981,60360
516.304,-528.575,60271
516.262,-530.168,60242
516.22,-531.762,60067
516.177,-533.356,60034
516.135,-534.95,60064
516.092,-536.545,60025
516.05,-538.14,59956
516.007,-539.735,60027
515.965,-541.33,59992
515.922,-542.926,60009
515.88,-544.522,59963
515.837,-546.118,60089
515.795,-547.715,60063
515.752,-549.311,60116
515.71,-550.908,59998
515.667,-552.505,60051
515.625,-554.103,60043
515.582,-555.701,60082
515.54,-557.299,59990
515.497,-558.897,59975
515.455,-560.496,60047
515.412,-562.094,60042
515.37,-563.693,60008
515.328,-565.293,60062
515.285,-566.892,60029
515.243,-568.492,60050
515.2,-570.092,60079
515.158,-571.693,60044
515.115,-573.293,60005
515.073,-574.894,60134
515.03,-576.496,60123
514.988,-578.097,60044
514.945,-579.699,60050
514.903,-581.301,60040
514.86,-582.903,59995
514.818,-584.505,60028
514.775,-586.108,60133
514.733,-587.711,60047
514.69,-589.315,60066
514.648,-590.918,60023
514.605,-592.522,59987
514.563,-594.126,59890
514.52,-595.73,59951
514.478,-597.335,60084
514.436,-598.94,60086
514.393,-600.545,60080
514.351,-602.151,60078
514.308,-603.756,60094
514.266,-605.362,60011
514.223,-606.968,59975
514.181,-608.575,60095
514.138,-610.182,60150
514.096,-611.789,60071
514.053,-613.396,60112
514.011,-615.003,60086
513.968,-616.611,59986
513.926,-618.219,60000
513.883,-619.828,60052
513.841,-621.436,60063
513.798,-623.045,60026
513.756,-624.654,60001
513.713,-626.264,60010
513.671,-627.873,60076
513.628,-629.483,60032
513.586,-631.094,59999
513.544,-632.704,60031
513.501,-634.315,59996
513.459,-635.926,59975
513.416,-637.537,60088
513.374,-639.149,59942
513.331,-640.76,60042
513.289,-642.372,60000
513.246,-643.985,60016
513.204,-645.597,59964
513.161,-647.21,59965
513.119,-648.823,60016
513.076,-650.437,60015
513.034,-652.05,60062
512.991,-653.664,59929
512.949,-655.279,59950
512.906,-656.893,59986
512.864,-658.508,60063
512.821,-660.123,59962
512.779,-661.738,59963
512.736,-663.354,59985
512.694,-664.97,59959
512.652,-666.586,59950
512.609,-668.202,59988
512.567,-669.819,59957
512.524,-671.435,60033
512.482,-673.053,60039
512.439,-674.67,59916
512.397,-676.288,59976
512.354,-677.906,60053
512.312,-679.524,60065
512.269,-681.142,60062
512.227,-682.761,60024
512.184,-684.38,60005
512.142,-685.999,60052
512.099,-687.619,59996
512.057,-689.239,60026
512.014,-690.859,60077
511.972,-692.479,60011
511.929,-694.1,59955
511.887,-695.721,59959
511.844,-697.342,59994
511.802,-698.964,60016
511.76,-700.585,59995
511.717,-702.207,59993
511.675,-703.83,60020
511.632,-705.452,59994
511.59,-707.075,59962
511.547,-708.698,59956
511.505,-710.321,59957
511.462,-711.945,59996
511.42,-713.569,59997
511.377,-715.193,59967
511.335,-716.817,59974
511.292,-718.442,60061
511.25,-720.067,60016
511.207,-721.692,59968
511.165,-723.318,60003
511.122,-724.943,59931
511.08,-726.569,59915
511.037,-728.196,60090
510.995,-729.822,60073
510.952,-731.449,59993
510.91,-733.076,60007
510.868,-734.704,59986
510.825,-736.331,59953
510.783,-737.959,60051
510.74,-739.587,59994
510.698,-741.216,60047
510.655,-742.845,59991
510.613,-744.474,60008
510.57,-746.103,60064
510.528,-747.733,60036
510.485,-749.362,59973
510.443,-750.992,59979
510.4,-752.623,60014
510.358,-754.253,59979
510.315,-755.884,59917
510.273,-757.516,59986
510.23,-759.147,60144
510.188,-760.779,60007
510.145,-762.411,59964
510.103,-764.043,63586
510.06,-765.676,60024
510.018,-767.308,60023
509.976,-768.941,60025
509.933,-770.575,60033
509.901,-771.8,60037