File: tomke/20240809_Si_on_TiO2/20240809/raw_data/Si_onTiO2_80mA_30mW_30sec_5acc_517nm_new.txt
Wavelength(nm), Raman shift(cm^-1), Intensity(counts)
525.364,-194.586,70484
525.301,-196.846,71125
525.239,-199.106,70940
525.177,-201.367,71051
525.114,-203.629,70994
525.052,-205.891,71109
524.99,-208.154,71344
524.927,-210.417,71383
524.865,-212.681,71398
524.802,-214.945,71473
524.74,-217.21,71241
524.678,-219.475,71496
524.615,-221.741,71689
524.553,-224.008,71451
524.491,-226.275,71878
524.428,-228.542,71592
524.366,-230.81,71627
524.304,-233.079,72024
524.241,-235.348,71563
524.179,-237.618,71721
524.116,-239.888,71727
524.054,-242.159,72017
523.992,-244.43,72112
523.929,-246.702,71774
523.867,-248.974,72319
523.805,-251.247,72171
523.742,-253.52,72753
523.68,-255.794,72953
523.617,-258.069,73651
523.555,-260.344,74478
523.493,-262.62,75226
523.43,-264.896,77156
523.368,-267.173,79266
523.306,-269.45,82758
523.243,-271.728,86304
523.181,-274.006,90741
523.119,-276.285,95148
523.056,-278.564,98956
522.994,-280.844,102395
522.931,-283.125,105380
522.869,-285.406,107330
522.807,-287.688,109163
522.744,-289.97,109892
522.682,-292.252,110552
522.62,-294.536,110508
522.557,-296.82,111486
522.495,-299.104,111048
522.432,-301.389,111124
522.37,-303.674,111530
522.308,-305.96,110547
522.245,-308.247,110684
522.183,-310.534,110556
522.121,-312.821,110911
522.058,-315.11,110976
521.996,-317.398,109882
521.933,-319.687,109983
521.871,-321.977,109653
521.809,-324.268,109608
521.746,-326.559,109556
521.684,-328.85,109231
521.622,-331.142,108686
521.559,-333.434,108946
521.497,-335.728,108722
521.435,-338.021,107836
521.372,-340.315,108098
521.31,-342.61,107741
521.247,-344.905,108478
521.185,-347.201,108296
521.123,-349.498,107824
521.06,-351.795,107198
520.998,-354.092,107156
520.936,-356.39,107258
520.873,-358.689,106610
520.811,-360.988,106681
520.748,-363.287,106505
520.686,-365.588,105416
520.624,-367.889,105622
520.561,-370.19,105743
520.499,-372.492,105319
520.437,-374.794,104877
520.374,-377.097,105456
520.312,-379.401,104453
520.249,-381.705,104674
520.187,-384.009,104392
520.125,-386.315,104284
520.062,-388.62,103893
520.0,-390.927,104462
519.938,-393.234,104218
519.875,-395.541,103926
519.813,-397.849,103785
519.751,-400.158,103946
519.688,-402.467,103934
519.626,-404.776,103304
519.563,-407.086,103341
519.501,-409.397,103085
519.439,-411.708,102387
519.376,-414.02,102465
519.314,-416.333,102703
519.252,-418.646,102540
519.189,-420.959,101667
519.127,-423.273,101388
519.064,-425.588,100858
519.002,-427.903,100938
518.94,-430.219,100583
518.877,-432.535,100553
518.815,-434.852,100322
518.753,-437.169,100253
518.69,-439.487,99759
518.628,-441.806,99458
518.565,-444.125,98880
518.503,-446.445,99220
518.441,-448.765,99431
518.378,-451.086,99310
518.316,-453.407,98678
518.254,-455.729,99072
518.191,-458.051,98959
518.129,-460.374,98665
518.067,-462.698,98155
518.004,-465.022,98203
517.942,-467.347,98434
517.879,-469.672,98155
517.817,-471.998,98629
517.755,-474.324,98284
517.692,-476.651,97884
517.63,-478.978,97892
517.568,-481.306,98104
517.505,-483.635,98447
517.443,-485.964,98712
517.38,-488.294,99046
517.318,-490.624,100088
517.256,-492.955,101779
517.193,-495.286,103159
517.131,-497.618,104486
517.069,-499.951,105319
517.006,-502.284,105294
516.944,-504.618,103422
516.881,-506.952,100766
516.819,-509.287,99340
516.757,-511.622,98325
516.694,-513.958,97542
516.632,-516.294,97104
516.57,-518.631,96697
516.507,-520.969,96396
516.445,-523.307,96202
516.383,-525.646,96495
516.32,-527.985,95737
516.258,-530.325,95641
516.195,-532.665,95753
516.133,-535.006,95540
516.071,-537.348,95686
516.008,-539.69,95422
515.946,-542.033,95251
515.884,-544.376,94814
515.821,-546.72,95122
515.759,-549.064,95164
515.696,-551.409,94336
515.634,-553.755,94676
515.572,-556.101,94701
515.509,-558.448,94502
515.447,-560.795,94288
515.385,-563.143,94109
515.322,-565.491,94137
515.26,-567.84,94383
515.198,-570.189,94027
515.135,-572.539,94191
515.073,-574.89,93841
515.01,-577.241,93774
514.948,-579.593,93777
514.886,-581.945,93522
514.823,-584.298,94071
514.761,-586.652,93748
514.699,-589.006,93838
514.636,-591.361,93392
514.574,-593.716,93254
514.511,-596.072,93599
514.449,-598.428,93158
514.387,-600.785,93093
514.324,-603.142,92898
514.262,-605.5,92610
514.2,-607.859,93071
514.137,-610.218,92660
514.075,-612.578,92859
514.012,-614.938,92558
513.95,-617.299,92696
513.888,-619.661,92254
513.825,-622.023,91955
513.763,-624.385,92126
513.701,-626.749,91756
513.638,-629.112,91843
513.576,-631.477,91939
513.514,-633.842,91661
513.451,-636.207,91717
513.389,-638.573,91416
513.326,-640.94,91086
513.264,-643.307,91305
513.202,-645.675,90967
513.139,-648.043,91005
513.077,-650.412,91340
513.015,-652.782,90742
512.952,-655.152,90568
512.89,-657.523,90247
512.827,-659.894,90249
512.765,-662.266,90291
512.703,-664.638,89867
512.64,-667.011,89971
512.578,-669.385,90065
512.516,-671.759,90186
512.453,-674.134,89886
512.391,-676.509,89369
512.328,-678.885,89575
512.266,-681.261,89616
512.204,-683.638,89215
512.141,-686.016,89293
512.079,-688.394,88845
512.017,-690.773,89224
511.954,-693.152,88516
511.892,-695.532,88370
511.83,-697.913,88228
511.767,-700.294,88140
511.705,-702.676,88150
511.642,-705.058,88312
511.58,-707.441,88050
511.518,-709.824,87879
511.455,-712.208,87718
511.393,-714.593,87694
511.331,-716.978,87418
511.268,-719.364,87314
511.206,-721.75,87339
511.143,-724.137,86888
511.081,-726.525,87150
511.019,-728.913,86899
510.956,-731.301,86796
510.894,-733.691,86669
510.832,-736.08,86620
510.769,-738.471,86622
510.707,-740.862,86491
510.644,-743.253,86070
510.582,-745.646,86254
510.52,-748.038,85593
510.457,-750.432,85784
510.395,-752.826,85891
510.333,-755.22,85288
510.27,-757.615,85290
510.208,-760.011,85306
510.146,-762.407,85049
510.083,-764.804,85128
510.021,-767.201,85032
509.958,-769.599,84880
509.896,-771.998,84722
509.834,-774.397,84902
509.771,-776.797,84544
509.709,-779.197,83967
509.647,-781.598,84168
509.584,-784,84170
509.522,-786.402,84154
509.459,-788.805,84381
509.397,-791.208,83684
509.335,-793.612,83472
509.272,-796.016,83695
509.21,-798.421,83558
509.148,-800.827,83398
509.085,-803.233,83334
509.023,-805.64,83180
508.96,-808.048,82979
508.898,-810.456,82793
508.836,-812.864,82808
508.773,-815.274,82889
508.711,-817.683,82727
525.364,-194.586,68785
525.301,-196.846,69366
525.239,-199.106,69439
525.177,-201.367,69390
525.114,-203.629,69318
525.052,-205.891,69491
524.99,-208.154,69368
524.927,-210.417,69344
524.865,-212.681,69610
524.802,-214.945,69613
524.74,-217.21,69568
524.678,-219.475,69572
524.615,-221.741,69686
524.553,-224.008,69483
524.491,-226.275,69896
524.428,-228.542,69654
524.366,-230.81,69858
524.304,-233.079,69934
524.241,-235.348,69866
524.179,-237.618,69929
524.116,-239.888,69965
524.054,-242.159,69785
523.992,-244.43,69908
523.929,-246.702,69996
523.867,-248.974,70379
523.805,-251.247,70235
523.742,-253.52,70607
523.68,-255.794,70848
523.617,-258.069,71244
523.555,-260.344,72028
523.493,-262.62,72677
523.43,-264.896,73953
523.368,-267.173,76011
523.306,-269.45,78425
523.243,-271.728,81277
523.181,-274.006,84099
523.119,-276.285,87573
523.056,-278.564,90534
522.994,-280.844,93235
522.931,-283.125,94933
522.869,-285.406,96163
522.807,-287.688,98271
522.744,-289.97,98785
522.682,-292.252,99491
522.62,-294.536,99836
522.557,-296.82,99877
522.495,-299.104,99746
522.432,-301.389,99760
522.37,-303.674,99777
522.308,-305.96,99253
522.245,-308.247,99339
522.183,-310.534,99051
522.121,-312.821,98893
522.058,-315.11,99097
521.996,-317.398,98629
521.933,-319.687,98627
521.871,-321.977,98408
521.809,-324.268,98383
521.746,-326.559,98258
521.684,-328.85,97859
521.622,-331.142,97673
521.559,-333.434,97748
521.497,-335.728,97173
521.435,-338.021,97540
521.372,-340.315,97191
521.31,-342.61,97021
521.247,-344.905,97160
521.185,-347.201,96841
521.123,-349.498,96931
521.06,-351.795,96534
520.998,-354.092,96816
520.936,-356.39,96455
520.873,-358.689,96111
520.811,-360.988,95797
520.748,-363.287,95221
520.686,-365.588,95535
520.624,-367.889,95506
520.561,-370.19,95422
520.499,-372.492,95568
520.437,-374.794,94823
520.374,-377.097,94770
520.312,-379.401,94437
520.249,-381.705,94685
520.187,-384.009,94192
520.125,-386.315,94344
520.062,-388.62,93664
520.0,-390.927,93669
519.938,-393.234,94159
519.875,-395.541,93526
519.813,-397.849,93449
519.751,-400.158,93513
519.688,-402.467,93730
519.626,-404.776,93465
519.563,-407.086,93451
519.501,-409.397,93021
519.439,-411.708,93234
519.376,-414.02,92548
519.314,-416.333,92542
519.252,-418.646,91964
519.189,-420.959,91869
519.127,-423.273,91833
519.064,-425.588,91726
519.002,-427.903,91021
518.94,-430.219,90835
518.877,-432.535,91058
518.815,-434.852,90631
518.753,-437.169,90179
518.69,-439.487,90698
518.628,-441.806,90174
518.565,-444.125,89623
518.503,-446.445,89616
518.441,-448.765,89764
518.378,-451.086,89216
518.316,-453.407,89674
518.254,-455.729,89752
518.191,-458.051,89508
518.129,-460.374,89279
518.067,-462.698,89255
518.004,-465.022,88906
517.942,-467.347,88935
517.879,-469.672,89154
517.817,-471.998,89224
517.755,-474.324,89300
517.692,-476.651,88867
517.63,-478.978,89081
517.568,-481.306,89344
517.505,-483.635,89149
517.443,-485.964,89664
517.38,-488.294,90335
517.318,-490.624,90780
517.256,-492.955,92471
517.193,-495.286,93856
517.131,-497.618,95851
517.069,-499.951,96975
517.006,-502.284,96575
516.944,-504.618,94682
516.881,-506.952,92902
516.819,-509.287,91042
516.757,-511.622,89806
516.694,-513.958,88982
516.632,-516.294,88406
516.57,-518.631,87959
516.507,-520.969,87663
516.445,-523.307,87621
516.383,-525.646,87214
516.32,-527.985,87189
516.258,-530.325,87124
516.195,-532.665,86913
516.133,-535.006,87018
516.071,-537.348,87015
516.008,-539.69,87060
515.946,-542.033,86820
515.884,-544.376,86522
515.821,-546.72,86381
515.759,-549.064,86236
515.696,-551.409,86332
515.634,-553.755,86035
515.572,-556.101,86176
515.509,-558.448,86067
515.447,-560.795,86020
515.385,-563.143,85898
515.322,-565.491,85593
515.26,-567.84,85978
515.198,-570.189,85572
515.135,-572.539,85808
515.073,-574.89,85623
515.01,-577.241,85727
514.948,-579.593,85848
514.886,-581.945,85843
514.823,-584.298,85415
514.761,-586.652,85536
514.699,-589.006,85475
514.636,-591.361,85303
514.574,-593.716,85298
514.511,-596.072,85522
514.449,-598.428,85247
514.387,-600.785,84861
514.324,-603.142,85015
514.262,-605.5,85058
514.2,-607.859,84857
514.137,-610.218,85043
514.075,-612.578,84735
514.012,-614.938,84414
513.95,-617.299,84271
513.888,-619.661,84376
513.825,-622.023,84317
513.763,-624.385,84443
513.701,-626.749,84111
513.638,-629.112,83870
513.576,-631.477,83708
513.514,-633.842,83859
513.451,-636.207,83723
513.389,-638.573,83600
513.326,-640.94,83157
513.264,-643.307,83560
513.202,-645.675,83674
513.139,-648.043,83399
513.077,-650.412,83641
513.015,-652.782,83078
512.952,-655.152,83185
512.89,-657.523,83188
512.827,-659.894,82957
512.765,-662.266,82524
512.703,-664.638,82843
512.64,-667.011,82716
512.578,-669.385,82398
512.516,-671.759,82445
512.453,-674.134,82255
512.391,-676.509,82365
512.328,-678.885,82280
512.266,-681.261,82115
512.204,-683.638,82177
512.141,-686.016,81823
512.079,-688.394,82199
512.017,-690.773,81767
511.954,-693.152,81648
511.892,-695.532,81647
511.83,-697.913,81291
511.767,-700.294,80953
511.705,-702.676,81128
511.642,-705.058,81131
511.58,-707.441,80856
511.518,-709.824,80916
511.455,-712.208,81011
511.393,-714.593,81092
511.331,-716.978,80829
511.268,-719.364,80868
511.206,-721.75,80303
511.143,-724.137,80513
511.081,-726.525,80432
511.019,-728.913,80165
510.956,-731.301,80095
510.894,-733.691,80070
510.832,-736.08,80084
510.769,-738.471,80047
510.707,-740.862,79951
510.644,-743.253,79854
510.582,-745.646,79617
510.52,-748.038,79577
510.457,-750.432,79304
510.395,-752.826,79555
510.333,-755.22,79125
510.27,-757.615,79513
510.208,-760.011,78945
510.146,-762.407,78940
510.083,-764.804,78890
510.021,-767.201,78697
509.958,-769.599,78775
509.896,-771.998,78979
509.834,-774.397,78531
509.771,-776.797,78560
509.709,-779.197,78724
509.647,-781.598,78171
509.584,-784,78507
509.522,-786.402,78253
509.459,-788.805,77936
509.397,-791.208,77971
509.335,-793.612,77484
509.272,-796.016,77608
509.21,-798.421,77626
509.148,-800.827,77801
509.085,-803.233,77616
509.023,-805.64,77256
508.96,-808.048,77467
508.898,-810.456,77236
508.836,-812.864,77161
508.773,-815.274,77092
508.711,-817.683,76825
525.364,-194.586,68448
525.301,-196.846,68427
525.239,-199.106,68530
525.177,-201.367,68683
525.114,-203.629,68553
525.052,-205.891,68645
524.99,-208.154,68814
524.927,-210.417,68737
524.865,-212.681,68864
524.802,-214.945,68840
524.74,-217.21,68994
524.678,-219.475,69021
524.615,-221.741,68774
524.553,-224.008,69046
524.491,-226.275,69102
524.428,-228.542,68821
524.366,-230.81,69285
524.304,-233.079,69371
524.241,-235.348,69279
524.179,-237.618,69264
524.116,-239.888,69229
524.054,-242.159,69398
523.992,-244.43,69196
523.929,-246.702,69189
523.867,-248.974,69380
523.805,-251.247,69643
523.742,-253.52,69747
523.68,-255.794,69998
523.617,-258.069,70520
523.555,-260.344,70953
523.493,-262.62,71805
523.43,-264.896,72857
523.368,-267.173,74609
523.306,-269.45,76732
523.243,-271.728,79196
523.181,-274.006,82493
523.119,-276.285,85163
523.056,-278.564,88006
522.994,-280.844,90128
522.931,-283.125,92117
522.869,-285.406,93260
522.807,-287.688,94673
522.744,-289.97,95697
522.682,-292.252,95750
522.62,-294.536,96061
522.557,-296.82,96248
522.495,-299.104,96131
522.432,-301.389,96107
522.37,-303.674,95790
522.308,-305.96,95302
522.245,-308.247,95756
522.183,-310.534,95441
522.121,-312.821,95283
522.058,-315.11,95264
521.996,-317.398,95312
521.933,-319.687,94593
521.871,-321.977,94766
521.809,-324.268,94194
521.746,-326.559,94850
521.684,-328.85,94719
521.622,-331.142,94333
521.559,-333.434,93940
521.497,-335.728,94294
521.435,-338.021,93778
521.372,-340.315,93882
521.31,-342.61,93523
521.247,-344.905,93753
521.185,-347.201,93596
521.123,-349.498,93387
521.06,-351.795,93311
520.998,-354.092,92832
520.936,-356.39,92638
520.873,-358.689,92701
520.811,-360.988,92802
520.748,-363.287,92445
520.686,-365.588,91955
520.624,-367.889,92211
520.561,-370.19,91732
520.499,-372.492,91635
520.437,-374.794,91288
520.374,-377.097,91140
520.312,-379.401,91373
520.249,-381.705,91279
520.187,-384.009,91057
520.125,-386.315,91125
520.062,-388.62,90927
520.0,-390.927,90759
519.938,-393.234,90203
519.875,-395.541,90624
519.813,-397.849,90576
519.751,-400.158,90090
519.688,-402.467,90115
519.626,-404.776,90116
519.563,-407.086,90031
519.501,-409.397,89688
519.439,-411.708,89493
519.376,-414.02,89517
519.314,-416.333,89310
519.252,-418.646,89174
519.189,-420.959,89087
519.127,-423.273,88746
519.064,-425.588,88268
519.002,-427.903,88599
518.94,-430.219,88264
518.877,-432.535,87801
518.815,-434.852,87056
518.753,-437.169,87578
518.69,-439.487,87180
518.628,-441.806,87391
518.565,-444.125,86938
518.503,-446.445,86737
518.441,-448.765,86920
518.378,-451.086,86413
518.316,-453.407,86873
518.254,-455.729,86811
518.191,-458.051,86232
518.129,-460.374,86727
518.067,-462.698,86755
518.004,-465.022,86294
517.942,-467.347,86421
517.879,-469.672,85989
517.817,-471.998,86195
517.755,-474.324,86286
517.692,-476.651,86576
517.63,-478.978,86435
517.568,-481.306,86480
517.505,-483.635,86580
517.443,-485.964,87045
517.38,-488.294,87205
517.318,-490.624,88361
517.256,-492.955,89135
517.193,-495.286,91476
517.131,-497.618,93047
517.069,-499.951,94685
517.006,-502.284,93709
516.944,-504.618,92189
516.881,-506.952,89950
516.819,-509.287,87816
516.757,-511.622,86905
516.694,-513.958,86213
516.632,-516.294,85864
516.57,-518.631,85558
516.507,-520.969,85038
516.445,-523.307,85180
516.383,-525.646,84771
516.32,-527.985,84480
516.258,-530.325,84205
516.195,-532.665,84497
516.133,-535.006,83851
516.071,-537.348,84153
516.008,-539.69,84090
515.946,-542.033,83779
515.884,-544.376,83902
515.821,-546.72,83618
515.759,-549.064,83602
515.696,-551.409,83748
515.634,-553.755,83587
515.572,-556.101,83359
515.509,-558.448,83657
515.447,-560.795,83309
515.385,-563.143,83555
515.322,-565.491,83239
515.26,-567.84,83303
515.198,-570.189,83192
515.135,-572.539,83034
515.073,-574.89,83007
515.01,-577.241,83054
514.948,-579.593,82973
514.886,-581.945,82943
514.823,-584.298,82680
514.761,-586.652,82806
514.699,-589.006,82693
514.636,-591.361,82765
514.574,-593.716,82777
514.511,-596.072,82532
514.449,-598.428,82774
514.387,-600.785,82595
514.324,-603.142,82380
514.262,-605.5,82337
514.2,-607.859,82174
514.137,-610.218,82336
514.075,-612.578,81857
514.012,-614.938,82202
513.95,-617.299,81855
513.888,-619.661,81954
513.825,-622.023,81729
513.763,-624.385,81389
513.701,-626.749,81380
513.638,-629.112,81792
513.576,-631.477,81680
513.514,-633.842,81240
513.451,-636.207,81415
513.389,-638.573,81302
513.326,-640.94,81465
513.264,-643.307,80829
513.202,-645.675,81411
513.139,-648.043,80906
513.077,-650.412,80963
513.015,-652.782,80668
512.952,-655.152,80893
512.89,-657.523,80610
512.827,-659.894,80433
512.765,-662.266,80506
512.703,-664.638,80433
512.64,-667.011,80291
512.578,-669.385,80200
512.516,-671.759,80441
512.453,-674.134,80540
512.391,-676.509,80158
512.328,-678.885,79779
512.266,-681.261,79783
512.204,-683.638,79971
512.141,-686.016,79530
512.079,-688.394,79381
512.017,-690.773,79343
511.954,-693.152,79449
511.892,-695.532,79284
511.83,-697.913,79104
511.767,-700.294,79189
511.705,-702.676,78950
511.642,-705.058,79172
511.58,-707.441,79007
511.518,-709.824,78737
511.455,-712.208,78839
511.393,-714.593,78537
511.331,-716.978,78312
511.268,-719.364,78687
511.206,-721.75,78376
511.143,-724.137,78580
511.081,-726.525,78353
511.019,-728.913,78137
510.956,-731.301,78176
510.894,-733.691,78288
510.832,-736.08,77748
510.769,-738.471,78050
510.707,-740.862,77814
510.644,-743.253,77539
510.582,-745.646,77528
510.52,-748.038,77569
510.457,-750.432,77495
510.395,-752.826,77511
510.333,-755.22,77450
510.27,-757.615,77428
510.208,-760.011,77066
510.146,-762.407,77278
510.083,-764.804,77034
510.021,-767.201,77006
509.958,-769.599,76989
509.896,-771.998,76518
509.834,-774.397,76461
509.771,-776.797,76636
509.709,-779.197,76471
509.647,-781.598,76359
509.584,-784,76287
509.522,-786.402,76233
509.459,-788.805,76144
509.397,-791.208,76175
509.335,-793.612,76173
509.272,-796.016,75935
509.21,-798.421,76071
509.148,-800.827,75835
509.085,-803.233,75757
509.023,-805.64,75585
508.96,-808.048,75548
508.898,-810.456,75688
508.836,-812.864,75638
508.773,-815.274,75492
508.711,-817.683,75042
525.364,-194.586,68184
525.301,-196.846,68309
525.239,-199.106,68552
525.177,-201.367,68418
525.114,-203.629,68490
525.052,-205.891,68654
524.99,-208.154,68485
524.927,-210.417,68739
524.865,-212.681,68673
524.802,-214.945,68826
524.74,-217.21,68788
524.678,-219.475,69000
524.615,-221.741,69194
524.553,-224.008,68786
524.491,-226.275,68773
524.428,-228.542,68793
524.366,-230.81,68906
524.304,-233.079,69062
524.241,-235.348,68855
524.179,-237.618,69065
524.116,-239.888,69098
524.054,-242.159,69321
523.992,-244.43,69061
523.929,-246.702,69276
523.867,-248.974,69459
523.805,-251.247,69376
523.742,-253.52,69684
523.68,-255.794,69955
523.617,-258.069,70484
523.555,-260.344,70806
523.493,-262.62,71415
523.43,-264.896,72711
523.368,-267.173,74520
523.306,-269.45,76252
523.243,-271.728,78972
523.181,-274.006,82005
523.119,-276.285,84716
523.056,-278.564,87432
522.994,-280.844,89475
522.931,-283.125,91822
522.869,-285.406,92592
522.807,-287.688,93780
522.744,-289.97,94527
522.682,-292.252,94952
522.62,-294.536,95326
522.557,-296.82,95113
522.495,-299.104,94707
522.432,-301.389,95184
522.37,-303.674,94976
522.308,-305.96,94942
522.245,-308.247,94968
522.183,-310.534,94635
522.121,-312.821,94594
522.058,-315.11,94655
521.996,-317.398,94556
521.933,-319.687,94219
521.871,-321.977,93972
521.809,-324.268,93855
521.746,-326.559,93307
521.684,-328.85,93803
521.622,-331.142,93490
521.559,-333.434,93553
521.497,-335.728,93377
521.435,-338.021,93047
521.372,-340.315,93066
521.31,-342.61,93044
521.247,-344.905,93105
521.185,-347.201,92916
521.123,-349.498,92481
521.06,-351.795,92638
520.998,-354.092,92573
520.936,-356.39,92153
520.873,-358.689,92010
520.811,-360.988,91718
520.748,-363.287,91946
520.686,-365.588,91584
520.624,-367.889,90833
520.561,-370.19,90968
520.499,-372.492,90815
520.437,-374.794,90810
520.374,-377.097,90497
520.312,-379.401,90645
520.249,-381.705,90441
520.187,-384.009,90695
520.125,-386.315,90367
520.062,-388.62,90318
520.0,-390.927,90074
519.938,-393.234,89984
519.875,-395.541,89638
519.813,-397.849,90067
519.751,-400.158,89640
519.688,-402.467,89451
519.626,-404.776,90261
519.563,-407.086,89439
519.501,-409.397,89352
519.439,-411.708,89216
519.376,-414.02,88820
519.314,-416.333,88795
519.252,-418.646,88525
519.189,-420.959,88430
519.127,-423.273,87884
519.064,-425.588,87806
519.002,-427.903,87510
518.94,-430.219,87628
518.877,-432.535,87027
518.815,-434.852,87386
518.753,-437.169,86815
518.69,-439.487,86782
518.628,-441.806,86428
518.565,-444.125,86457
518.503,-446.445,86122
518.441,-448.765,86284
518.378,-451.086,86238
518.316,-453.407,86310
518.254,-455.729,86042
518.191,-458.051,86143
518.129,-460.374,86035
518.067,-462.698,86164
518.004,-465.022,85645
517.942,-467.347,85930
517.879,-469.672,85580
517.817,-471.998,85879
517.755,-474.324,85760
517.692,-476.651,85512
517.63,-478.978,86047
517.568,-481.306,85840
517.505,-483.635,86321
517.443,-485.964,86342
517.38,-488.294,86866
517.318,-490.624,87348
517.256,-492.955,89009
517.193,-495.286,90386
517.131,-497.618,92771
517.069,-499.951,93841
517.006,-502.284,93439
516.944,-504.618,91845
516.881,-506.952,89391
516.819,-509.287,87806
516.757,-511.622,86738
516.694,-513.958,85744
516.632,-516.294,85310
516.57,-518.631,84177
516.507,-520.969,84583
516.445,-523.307,84406
516.383,-525.646,84350
516.32,-527.985,83700
516.258,-530.325,83812
516.195,-532.665,83673
516.133,-535.006,83507
516.071,-537.348,83888
516.008,-539.69,83380
515.946,-542.033,83326
515.884,-544.376,83406
515.821,-546.72,83345
515.759,-549.064,83045
515.696,-551.409,83059
515.634,-553.755,83033
515.572,-556.101,83112
515.509,-558.448,83005
515.447,-560.795,82710
515.385,-563.143,82513
515.322,-565.491,82222
515.26,-567.84,82587
515.198,-570.189,82665
515.135,-572.539,82441
515.073,-574.89,82454
515.01,-577.241,82443
514.948,-579.593,82545
514.886,-581.945,82565
514.823,-584.298,82374
514.761,-586.652,82531
514.699,-589.006,82321
514.636,-591.361,82482
514.574,-593.716,81959
514.511,-596.072,82503
514.449,-598.428,82278
514.387,-600.785,82152
514.324,-603.142,82265
514.262,-605.5,82190
514.2,-607.859,81500
514.137,-610.218,81666
514.075,-612.578,82150
514.012,-614.938,81607
513.95,-617.299,81029
513.888,-619.661,81265
513.825,-622.023,81483
513.763,-624.385,81333
513.701,-626.749,81114
513.638,-629.112,81014
513.576,-631.477,81263
513.514,-633.842,80621
513.451,-636.207,80978
513.389,-638.573,80997
513.326,-640.94,80779
513.264,-643.307,80753
513.202,-645.675,80497
513.139,-648.043,80178
513.077,-650.412,80421
513.015,-652.782,80528
512.952,-655.152,80600
512.89,-657.523,80158
512.827,-659.894,80415
512.765,-662.266,80145
512.703,-664.638,80147
512.64,-667.011,80049
512.578,-669.385,79883
512.516,-671.759,79771
512.453,-674.134,79855
512.391,-676.509,79546
512.328,-678.885,79283
512.266,-681.261,79166
512.204,-683.638,79124
512.141,-686.016,79346
512.079,-688.394,79003
512.017,-690.773,78970
511.954,-693.152,78963
511.892,-695.532,79190
511.83,-697.913,78665
511.767,-700.294,78703
511.705,-702.676,78529
511.642,-705.058,78370
511.58,-707.441,78671
511.518,-709.824,78279
511.455,-712.208,78583
511.393,-714.593,78221
511.331,-716.978,78109
511.268,-719.364,78036
511.206,-721.75,77827
511.143,-724.137,77929
511.081,-726.525,77983
511.019,-728.913,77919
510.956,-731.301,77687
510.894,-733.691,77676
510.832,-736.08,77583
510.769,-738.471,77340
510.707,-740.862,77414
510.644,-743.253,77078
510.582,-745.646,77184
510.52,-748.038,77178
510.457,-750.432,77206
510.395,-752.826,77393
510.333,-755.22,76881
510.27,-757.615,76728
510.208,-760.011,76836
510.146,-762.407,76573
510.083,-764.804,76174
510.021,-767.201,76474
509.958,-769.599,76651
509.896,-771.998,76431
509.834,-774.397,76209
509.771,-776.797,76242
509.709,-779.197,76052
509.647,-781.598,76152
509.584,-784,76044
509.522,-786.402,76016
509.459,-788.805,76085
509.397,-791.208,75914
509.335,-793.612,75839
509.272,-796.016,75657
509.21,-798.421,75492
509.148,-800.827,75565
509.085,-803.233,75645
509.023,-805.64,75671
508.96,-808.048,75287
508.898,-810.456,75259
508.836,-812.864,75394
508.773,-815.274,74706
508.711,-817.683,75078
525.364,-194.586,68126
525.301,-196.846,68645
525.239,-199.106,68457
525.177,-201.367,68328
525.114,-203.629,68876
525.052,-205.891,68540
524.99,-208.154,68930
524.927,-210.417,68682
524.865,-212.681,68426
524.802,-214.945,68617
524.74,-217.21,68680
524.678,-219.475,68840
524.615,-221.741,68771
524.553,-224.008,68923
524.491,-226.275,68903
524.428,-228.542,68916
524.366,-230.81,68984
524.304,-233.079,69034
524.241,-235.348,68950
524.179,-237.618,68922
524.116,-239.888,69075
524.054,-242.159,69125
523.992,-244.43,69220
523.929,-246.702,69412
523.867,-248.974,69359
523.805,-251.247,69587
523.742,-253.52,69553
523.68,-255.794,69830
523.617,-258.069,70481
523.555,-260.344,70858
523.493,-262.62,71238
523.43,-264.896,72694
523.368,-267.173,74534
523.306,-269.45,76392
523.243,-271.728,78810
523.181,-274.006,81535
523.119,-276.285,85204
523.056,-278.564,87352
522.994,-280.844,89558
522.931,-283.125,91365
522.869,-285.406,92790
522.807,-287.688,94127
522.744,-289.97,94419
522.682,-292.252,95039
522.62,-294.536,95371
522.557,-296.82,94883
522.495,-299.104,95205
522.432,-301.389,95513
522.37,-303.674,95054
522.308,-305.96,95212
522.245,-308.247,94983
522.183,-310.534,95010
522.121,-312.821,94605
522.058,-315.11,94862
521.996,-317.398,94092
521.933,-319.687,94591
521.871,-321.977,94086
521.809,-324.268,93775
521.746,-326.559,93727
521.684,-328.85,93814
521.622,-331.142,93436
521.559,-333.434,93522
521.497,-335.728,93084
521.435,-338.021,93249
521.372,-340.315,93269
521.31,-342.61,93165
521.247,-344.905,92595
521.185,-347.201,92712
521.123,-349.498,92805
521.06,-351.795,92498
520.998,-354.092,92396
520.936,-356.39,92330
520.873,-358.689,92147
520.811,-360.988,91828
520.748,-363.287,91411
520.686,-365.588,91485
520.624,-367.889,91236
520.561,-370.19,91390
520.499,-372.492,90816
520.437,-374.794,91165
520.374,-377.097,90496
520.312,-379.401,90576
520.249,-381.705,90655
520.187,-384.009,90234
520.125,-386.315,89915
520.062,-388.62,90361
520.0,-390.927,89944
519.938,-393.234,90127
519.875,-395.541,89949
519.813,-397.849,89807
519.751,-400.158,89442
519.688,-402.467,89800
519.626,-404.776,89815
519.563,-407.086,89019
519.501,-409.397,89123
519.439,-411.708,88907
519.376,-414.02,89200
519.314,-416.333,89104
519.252,-418.646,88839
519.189,-420.959,88307
519.127,-423.273,88163
519.064,-425.588,87993
519.002,-427.903,87933
518.94,-430.219,87302
518.877,-432.535,87305
518.815,-434.852,87183
518.753,-437.169,86635
518.69,-439.487,86846
518.628,-441.806,86500
518.565,-444.125,86364
518.503,-446.445,86727
518.441,-448.765,86329
518.378,-451.086,86111
518.316,-453.407,86207
518.254,-455.729,86309
518.191,-458.051,86010
518.129,-460.374,85868
518.067,-462.698,85968
518.004,-465.022,85678
517.942,-467.347,85800
517.879,-469.672,85454
517.817,-471.998,86176
517.755,-474.324,85986
517.692,-476.651,85569
517.63,-478.978,85680
517.568,-481.306,85456
517.505,-483.635,86002
517.443,-485.964,86594
517.38,-488.294,86983
517.318,-490.624,87787
517.256,-492.955,88783
517.193,-495.286,90625
517.131,-497.618,92217
517.069,-499.951,94040
517.006,-502.284,93309
516.944,-504.618,91539
516.881,-506.952,89669
516.819,-509.287,87878
516.757,-511.622,86516
516.694,-513.958,85955
516.632,-516.294,85603
516.57,-518.631,84448
516.507,-520.969,84617
516.445,-523.307,83970
516.383,-525.646,84169
516.32,-527.985,83971
516.258,-530.325,83845
516.195,-532.665,83410
516.133,-535.006,83806
516.071,-537.348,83466
516.008,-539.69,83245
515.946,-542.033,83316
515.884,-544.376,83183
515.821,-546.72,83033
515.759,-549.064,83437
515.696,-551.409,82811
515.634,-553.755,82966
515.572,-556.101,82897
515.509,-558.448,83084
515.447,-560.795,82714
515.385,-563.143,82843
515.322,-565.491,82770
515.26,-567.84,82531
515.198,-570.189,82676
515.135,-572.539,82476
515.073,-574.89,82535
515.01,-577.241,82723
514.948,-579.593,82521
514.886,-581.945,82689
514.823,-584.298,82351
514.761,-586.652,82484
514.699,-589.006,82297
514.636,-591.361,82405
514.574,-593.716,82406
514.511,-596.072,82316
514.449,-598.428,82201
514.387,-600.785,82212
514.324,-603.142,82165
514.262,-605.5,82217
514.2,-607.859,81507
514.137,-610.218,81513
514.075,-612.578,81648
514.012,-614.938,81373
513.95,-617.299,81588
513.888,-619.661,81460
513.825,-622.023,81432
513.763,-624.385,80967
513.701,-626.749,80932
513.638,-629.112,81329
513.576,-631.477,81042
513.514,-633.842,80917
513.451,-636.207,80700
513.389,-638.573,80805
513.326,-640.94,80493
513.264,-643.307,80737
513.202,-645.675,80591
513.139,-648.043,80454
513.077,-650.412,80471
513.015,-652.782,80522
512.952,-655.152,80675
512.89,-657.523,80327
512.827,-659.894,80239
512.765,-662.266,80054
512.703,-664.638,80106
512.64,-667.011,79869
512.578,-669.385,79944
512.516,-671.759,79958
512.453,-674.134,79461
512.391,-676.509,79684
512.328,-678.885,79431
512.266,-681.261,79268
512.204,-683.638,79680
512.141,-686.016,79675
512.079,-688.394,78901
512.017,-690.773,79024
511.954,-693.152,78773
511.892,-695.532,78653
511.83,-697.913,78962
511.767,-700.294,78622
511.705,-702.676,78851
511.642,-705.058,78541
511.58,-707.441,78800
511.518,-709.824,78508
511.455,-712.208,78310
511.393,-714.593,78286
511.331,-716.978,78004
511.268,-719.364,77882
511.206,-721.75,78021
511.143,-724.137,78017
511.081,-726.525,78016
511.019,-728.913,78134
510.956,-731.301,77745
510.894,-733.691,77794
510.832,-736.08,77660
510.769,-738.471,77576
510.707,-740.862,77462
510.644,-743.253,77664
510.582,-745.646,77208
510.52,-748.038,77101
510.457,-750.432,76955
510.395,-752.826,77006
510.333,-755.22,76970
510.27,-757.615,77219
510.208,-760.011,76727
510.146,-762.407,76733
510.083,-764.804,76696
510.021,-767.201,76672
509.958,-769.599,76506
509.896,-771.998,76528
509.834,-774.397,76324
509.771,-776.797,76348
509.709,-779.197,76289
509.647,-781.598,76044
509.584,-784,76009
509.522,-786.402,75860
509.459,-788.805,75639
509.397,-791.208,75858
509.335,-793.612,75773
509.272,-796.016,75552
509.21,-798.421,75769
509.148,-800.827,75419
509.085,-803.233,75571
509.023,-805.64,75510
508.96,-808.048,75188
508.898,-810.456,75246
508.836,-812.864,75006
508.773,-815.274,75223
508.711,-817.683,75020
508.661,-819.612,75004