File: tomke/20240809_Si_on_TiO2/20240809/raw_data/Si_onTiO2_50mA_30mW_30sec_5acc_545nm.txt
Wavelength(nm), Raman shift(cm^-1), Intensity(counts)
553.364,768.549,82469
553.301,766.512,82855
553.239,764.475,83182
553.177,762.437,83272
553.114,760.398,82831
553.052,758.359,83003
552.99,756.32,83189
552.927,754.28,83137
552.865,752.24,82936
552.802,750.199,82725
552.74,748.158,82883
552.678,746.116,82643
552.615,744.074,82571
552.553,742.032,82952
552.491,739.989,82776
552.428,737.945,82849
552.366,735.901,83004
552.304,733.857,82413
552.241,731.812,82674
552.179,729.766,82713
552.116,727.721,82351
552.054,725.674,82656
551.992,723.628,82648
551.929,721.58,82848
551.867,719.533,82652
551.805,717.485,82363
551.742,715.436,82767
551.68,713.387,82500
551.617,711.337,82751
551.555,709.287,82076
551.493,707.237,82695
551.43,705.186,82500
551.368,703.135,82692
551.306,701.083,82342
551.243,699.031,82867
551.181,696.978,82847
551.119,694.925,82318
551.056,692.871,82348
550.994,690.817,82749
550.931,688.762,82505
550.869,686.707,82511
550.807,684.651,82344
550.744,682.595,82234
550.682,680.539,82362
550.62,678.482,82263
550.557,676.425,82679
550.495,674.367,82475
550.432,672.308,82462
550.37,670.25,82337
550.308,668.19,82064
550.245,666.131,82026
550.183,664.07,82181
550.121,662.01,82089
550.058,659.948,82219
549.996,657.887,82132
549.933,655.825,81817
549.871,653.762,81972
549.809,651.699,82237
549.746,649.636,82162
549.684,647.572,82271
549.622,645.507,81984
549.559,643.442,81949
549.497,641.377,82120
549.435,639.311,81803
549.372,637.245,81719
549.31,635.178,82261
549.247,633.111,82202
549.185,631.043,82276
549.123,628.975,82020
549.06,626.906,82070
548.998,624.837,82166
548.936,622.768,82223
548.873,620.698,82228
548.811,618.627,81922
548.748,616.556,81616
548.686,614.485,81688
548.624,612.413,81533
548.561,610.34,82020
548.499,608.267,81080
548.437,606.194,81454
548.374,604.12,81406
548.312,602.046,81417
548.249,599.971,81005
548.187,597.896,81212
548.125,595.82,80834
548.062,593.744,80952
548.0,591.667,80935
547.938,589.59,80915
547.875,587.513,80761
547.813,585.434,80520
547.751,583.356,80799
547.688,581.277,80395
547.626,579.197,80309
547.563,577.117,79970
547.501,575.037,79872
547.439,572.956,80196
547.376,570.875,79913
547.314,568.793,79982
547.252,566.71,79568
547.189,564.628,79670
547.127,562.544,79728
547.064,560.461,79741
547.002,558.376,79808
546.94,556.292,79460
546.877,554.206,79307
546.815,552.121,79489
546.753,550.035,79790
546.69,547.948,79527
546.628,545.861,79265
546.565,543.773,79670
546.503,541.685,79398
546.441,539.597,79588
546.378,537.508,79134
546.316,535.418,78999
546.254,533.328,79087
546.191,531.238,79211
546.129,529.147,79559
546.067,527.056,79047
546.004,524.964,79239
545.942,522.871,79608
545.879,520.778,79524
545.817,518.685,79770
545.755,516.591,80174
545.692,514.497,80441
545.63,512.402,81361
545.568,510.307,83009
545.505,508.211,85612
545.443,506.115,88562
545.38,504.019,90032
545.318,501.922,90435
545.256,499.824,89076
545.193,497.726,86503
545.131,495.627,84132
545.069,493.528,82655
545.006,491.429,81292
544.944,489.329,80572
544.881,487.228,80119
544.819,485.127,79613
544.757,483.026,79402
544.694,480.924,79182
544.632,478.821,78998
544.57,476.718,78942
544.507,474.615,78704
544.445,472.511,78413
544.383,470.407,78497
544.32,468.302,78654
544.258,466.197,78376
544.195,464.091,78169
544.133,461.985,78096
544.071,459.878,77771
544.008,457.771,77996
543.946,455.663,77420
543.884,453.555,77618
543.821,451.446,77460
543.759,449.337,77369
543.696,447.227,77421
543.634,445.117,77417
543.572,443.006,77338
543.509,440.895,77295
543.447,438.784,77323
543.385,436.671,77255
543.322,434.559,77270
543.26,432.446,77280
543.198,430.332,77054
543.135,428.218,77242
543.073,426.104,77215
543.01,423.989,80108
542.948,421.873,77435
542.886,419.757,77415
542.823,417.641,77523
542.761,415.524,77368
542.699,413.407,77299
542.636,411.289,77128
542.574,409.17,77255
542.511,407.051,77335
542.449,404.932,77150
542.387,402.812,77457
542.324,400.692,76697
542.262,398.571,76976
542.2,396.45,77041
542.137,394.328,77161
542.075,392.205,77145
542.012,390.083,77025
541.95,387.959,77055
541.888,385.836,76944
541.825,383.711,76701
541.763,381.587,76568
541.701,379.461,76729
541.638,377.336,76470
541.576,375.209,76616
541.514,373.083,76560
541.451,370.955,76467
541.389,368.828,76532
541.326,366.7,76498
541.264,364.571,76339
541.202,362.442,76607
541.139,360.312,76466
541.077,358.182,76526
541.015,356.051,76323
540.952,353.92,76625
540.89,351.789,76080
540.827,349.657,76344
540.765,347.524,76576
540.703,345.391,76245
540.64,343.257,76263
540.578,341.123,75809
540.516,338.989,75810
540.453,336.854,76140
540.391,334.718,75935
540.328,332.582,75581
540.266,330.445,75601
540.204,328.308,75256
540.141,326.171,75236
540.079,324.033,75470
540.017,321.894,75313
539.954,319.755,75250
539.892,317.616,75457
539.83,315.476,75238
539.767,313.335,75642
539.705,311.194,75629
539.642,309.053,75576
539.58,306.911,75543
539.518,304.768,75737
539.455,302.625,75744
539.393,300.482,75706
539.331,298.338,75714
539.268,296.194,75504
539.206,294.049,75424
539.143,291.903,75114
539.081,289.757,74799
539.019,287.611,74402
538.956,285.464,74219
538.894,283.316,73910
538.832,281.169,73780
538.769,279.02,73559
538.707,276.871,73343
538.644,274.722,73644
538.582,272.572,73380
538.52,270.421,72256
538.457,268.271,70868
538.395,266.119,69429
538.333,263.967,67527
538.27,261.815,65999
538.208,259.662,64583
538.146,257.508,63533
538.083,255.355,62575
538.021,253.2,62110
537.958,251.045,61602
537.896,248.89,61554
537.834,246.734,61259
537.771,244.578,61165
537.709,242.421,61179
537.647,240.263,61106
537.584,238.105,61146
537.522,235.947,61077
537.459,233.788,60941
537.397,231.629,61007
537.335,229.469,61029
537.272,227.308,60995
537.21,225.147,60904
537.148,222.986,60941
537.085,220.824,60907
537.023,218.662,60873
536.96,216.499,61017
536.898,214.335,60835
536.836,212.171,60931
536.773,210.007,60874
536.711,207.842,60818
553.364,768.549,83720
553.301,766.512,84148
553.239,764.475,83500
553.177,762.437,83677
553.114,760.398,83901
553.052,758.359,83710
552.99,756.32,83633
552.927,754.28,83777
552.865,752.24,83551
552.802,750.199,84089
552.74,748.158,83908
552.678,746.116,83407
552.615,744.074,83869
552.553,742.032,83276
552.491,739.989,83775
552.428,737.945,83635
552.366,735.901,83296
552.304,733.857,83468
552.241,731.812,83460
552.179,729.766,83233
552.116,727.721,83570
552.054,725.674,83435
551.992,723.628,83186
551.929,721.58,83291
551.867,719.533,83219
551.805,717.485,83557
551.742,715.436,83480
551.68,713.387,83335
551.617,711.337,83757
551.555,709.287,83520
551.493,707.237,83226
551.43,705.186,83261
551.368,703.135,83346
551.306,701.083,83071
551.243,699.031,83537
551.181,696.978,83546
551.119,694.925,83373
551.056,692.871,83183
550.994,690.817,83484
550.931,688.762,82928
550.869,686.707,83440
550.807,684.651,83222
550.744,682.595,83252
550.682,680.539,83399
550.62,678.482,83123
550.557,676.425,82708
550.495,674.367,83182
550.432,672.308,82942
550.37,670.25,83122
550.308,668.19,82732
550.245,666.131,82651
550.183,664.07,82819
550.121,662.01,82937
550.058,659.948,82981
549.996,657.887,82571
549.933,655.825,82616
549.871,653.762,82524
549.809,651.699,82843
549.746,649.636,82936
549.684,647.572,82799
549.622,645.507,82653
549.559,643.442,82767
549.497,641.377,82616
549.435,639.311,82978
549.372,637.245,83001
549.31,635.178,83061
549.247,633.111,83004
549.185,631.043,83055
549.123,628.975,82777
549.06,626.906,82631
548.998,624.837,82857
548.936,622.768,82291
548.873,620.698,82632
548.811,618.627,82715
548.748,616.556,82649
548.686,614.485,82280
548.624,612.413,82478
548.561,610.34,82322
548.499,608.267,82318
548.437,606.194,82168
548.374,604.12,82265
548.312,602.046,81994
548.249,599.971,82289
548.187,597.896,81830
548.125,595.82,81892
548.062,593.744,81583
548.0,591.667,81883
547.938,589.59,81266
547.875,587.513,81161
547.813,585.434,81551
547.751,583.356,81074
547.688,581.277,80988
547.626,579.197,80759
547.563,577.117,80946
547.501,575.037,80477
547.439,572.956,80773
547.376,570.875,80541
547.314,568.793,80690
547.252,566.71,80491
547.189,564.628,80418
547.127,562.544,80652
547.064,560.461,80423
547.002,558.376,80227
546.94,556.292,80390
546.877,554.206,80209
546.815,552.121,80025
546.753,550.035,80291
546.69,547.948,80279
546.628,545.861,80153
546.565,543.773,80185
546.503,541.685,79783
546.441,539.597,80020
546.378,537.508,79713
546.316,535.418,79992
546.254,533.328,80009
546.191,531.238,79968
546.129,529.147,79925
546.067,527.056,79694
546.004,524.964,80005
545.942,522.871,80061
545.879,520.778,80275
545.817,518.685,80148
545.755,516.591,80619
545.692,514.497,81366
545.63,512.402,82088
545.568,510.307,83471
545.505,508.211,85772
545.443,506.115,88654
545.38,504.019,90509
545.318,501.922,91054
545.256,499.824,89514
545.193,497.726,87088
545.131,495.627,84347
545.069,493.528,83483
545.006,491.429,82089
544.944,489.329,80980
544.881,487.228,80402
544.819,485.127,80265
544.757,483.026,79800
544.694,480.924,79766
544.632,478.821,79748
544.57,476.718,79508
544.507,474.615,79259
544.445,472.511,79080
544.383,470.407,79051
544.32,468.302,79007
544.258,466.197,78670
544.195,464.091,78837
544.133,461.985,78810
544.071,459.878,78562
544.008,457.771,78852
543.946,455.663,78725
543.884,453.555,78293
543.821,451.446,78478
543.759,449.337,78243
543.696,447.227,78109
543.634,445.117,78019
543.572,443.006,77760
543.509,440.895,77604
543.447,438.784,77645
543.385,436.671,77652
543.322,434.559,77713
543.26,432.446,77661
543.198,430.332,77537
543.135,428.218,77673
543.073,426.104,77787
543.01,423.989,77524
542.948,421.873,78114
542.886,419.757,78129
542.823,417.641,77922
542.761,415.524,77695
542.699,413.407,77791
542.636,411.289,77984
542.574,409.17,77858
542.511,407.051,77920
542.449,404.932,77788
542.387,402.812,77520
542.324,400.692,77988
542.262,398.571,77697
542.2,396.45,77736
542.137,394.328,77340
542.075,392.205,77706
542.012,390.083,77408
541.95,387.959,77380
541.888,385.836,77447
541.825,383.711,77475
541.763,381.587,77422
541.701,379.461,77286
541.638,377.336,76901
541.576,375.209,76998
541.514,373.083,76912
541.451,370.955,77288
541.389,368.828,76971
541.326,366.7,76765
541.264,364.571,77126
541.202,362.442,77174
541.139,360.312,76955
541.077,358.182,76990
541.015,356.051,77200
540.952,353.92,76777
540.89,351.789,77091
540.827,349.657,76725
540.765,347.524,76653
540.703,345.391,76515
540.64,343.257,76569
540.578,341.123,76653
540.516,338.989,76596
540.453,336.854,76747
540.391,334.718,76190
540.328,332.582,76160
540.266,330.445,75881
540.204,328.308,75865
540.141,326.171,75902
540.079,324.033,75784
540.017,321.894,75769
539.954,319.755,75959
539.892,317.616,75623
539.83,315.476,75682
539.767,313.335,76191
539.705,311.194,76093
539.642,309.053,76232
539.58,306.911,76193
539.518,304.768,76285
539.455,302.625,76120
539.393,300.482,76232
539.331,298.338,76135
539.268,296.194,76047
539.206,294.049,75794
539.143,291.903,75638
539.081,289.757,75154
539.019,287.611,74953
538.956,285.464,74561
538.894,283.316,74447
538.832,281.169,73993
538.769,279.02,74414
538.707,276.871,73803
538.644,274.722,74202
538.582,272.572,73669
538.52,270.421,72663
538.457,268.271,71293
538.395,266.119,69635
538.333,263.967,67895
538.27,261.815,66106
538.208,259.662,64881
538.146,257.508,63536
538.083,255.355,62810
538.021,253.2,62246
537.958,251.045,61794
537.896,248.89,61575
537.834,246.734,61342
537.771,244.578,61169
537.709,242.421,61148
537.647,240.263,61092
537.584,238.105,60997
537.522,235.947,61005
537.459,233.788,61077
537.397,231.629,60965
537.335,229.469,61022
537.272,227.308,61049
537.21,225.147,61105
537.148,222.986,61060
537.085,220.824,60918
537.023,218.662,60998
536.96,216.499,60907
536.898,214.335,61015
536.836,212.171,61065
536.773,210.007,60954
536.711,207.842,60938
553.364,768.549,83709
553.301,766.512,83756
553.239,764.475,83723
553.177,762.437,83752
553.114,760.398,83714
553.052,758.359,84024
552.99,756.32,83643
552.927,754.28,83765
552.865,752.24,83451
552.802,750.199,83914
552.74,748.158,83322
552.678,746.116,83358
552.615,744.074,83997
552.553,742.032,83194
552.491,739.989,83493
552.428,737.945,83223
552.366,735.901,83171
552.304,733.857,83115
552.241,731.812,83227
552.179,729.766,83418
552.116,727.721,83193
552.054,725.674,83062
551.992,723.628,83195
551.929,721.58,83219
551.867,719.533,83391
551.805,717.485,83124
551.742,715.436,83240
551.68,713.387,83392
551.617,711.337,83298
551.555,709.287,83023
551.493,707.237,83110
551.43,705.186,83115
551.368,703.135,83169
551.306,701.083,83270
551.243,699.031,83114
551.181,696.978,82921
551.119,694.925,82933
551.056,692.871,83341
550.994,690.817,83036
550.931,688.762,83328
550.869,686.707,83265
550.807,684.651,82919
550.744,682.595,83168
550.682,680.539,82955
550.62,678.482,83085
550.557,676.425,82652
550.495,674.367,83058
550.432,672.308,82769
550.37,670.25,82825
550.308,668.19,82880
550.245,666.131,82568
550.183,664.07,83147
550.121,662.01,82720
550.058,659.948,82903
549.996,657.887,82554
549.933,655.825,82295
549.871,653.762,82701
549.809,651.699,82551
549.746,649.636,82681
549.684,647.572,82680
549.622,645.507,82547
549.559,643.442,82708
549.497,641.377,82647
549.435,639.311,82889
549.372,637.245,82714
549.31,635.178,83113
549.247,633.111,82649
549.185,631.043,82728
549.123,628.975,83086
549.06,626.906,82834
548.998,624.837,82383
548.936,622.768,82549
548.873,620.698,82557
548.811,618.627,82866
548.748,616.556,82675
548.686,614.485,82447
548.624,612.413,82262
548.561,610.34,82380
548.499,608.267,82309
548.437,606.194,81867
548.374,604.12,82017
548.312,602.046,82078
548.249,599.971,82052
548.187,597.896,81639
548.125,595.82,81889
548.062,593.744,81637
548.0,591.667,81316
547.938,589.59,81246
547.875,587.513,81294
547.813,585.434,81511
547.751,583.356,80598
547.688,581.277,81039
547.626,579.197,80906
547.563,577.117,81074
547.501,575.037,80447
547.439,572.956,80736
547.376,570.875,80799
547.314,568.793,80215
547.252,566.71,80407
547.189,564.628,80213
547.127,562.544,80471
547.064,560.461,80165
547.002,558.376,80267
546.94,556.292,80234
546.877,554.206,80159
546.815,552.121,80345
546.753,550.035,80242
546.69,547.948,79889
546.628,545.861,79915
546.565,543.773,79664
546.503,541.685,79803
546.441,539.597,79861
546.378,537.508,79813
546.316,535.418,80008
546.254,533.328,79876
546.191,531.238,79706
546.129,529.147,79891
546.067,527.056,79518
546.004,524.964,79946
545.942,522.871,80032
545.879,520.778,79828
545.817,518.685,80152
545.755,516.591,80667
545.692,514.497,81321
545.63,512.402,82146
545.568,510.307,83626
545.505,508.211,86181
545.443,506.115,88516
545.38,504.019,90306
545.318,501.922,91206
545.256,499.824,89599
545.193,497.726,87122
545.131,495.627,84736
545.069,493.528,83266
545.006,491.429,81534
544.944,489.329,81528
544.881,487.228,80489
544.819,485.127,80061
544.757,483.026,79521
544.694,480.924,79641
544.632,478.821,79232
544.57,476.718,79144
544.507,474.615,79293
544.445,472.511,79077
544.383,470.407,79119
544.32,468.302,78903
544.258,466.197,78560
544.195,464.091,78619
544.133,461.985,78525
544.071,459.878,78517
544.008,457.771,78414
543.946,455.663,78411
543.884,453.555,77993
543.821,451.446,77990
543.759,449.337,78040
543.696,447.227,77882
543.634,445.117,77955
543.572,443.006,77609
543.509,440.895,77973
543.447,438.784,77576
543.385,436.671,77508
543.322,434.559,77633
543.26,432.446,77570
543.198,430.332,77641
543.135,428.218,77612
543.073,426.104,77710
543.01,423.989,77290
542.948,421.873,77764
542.886,419.757,78064
542.823,417.641,77599
542.761,415.524,77536
542.699,413.407,77818
542.636,411.289,77692
542.574,409.17,77767
542.511,407.051,77566
542.449,404.932,77753
542.387,402.812,77609
542.324,400.692,77466
542.262,398.571,77748
542.2,396.45,77616
542.137,394.328,77573
542.075,392.205,77303
542.012,390.083,77183
541.95,387.959,77396
541.888,385.836,77245
541.825,383.711,77369
541.763,381.587,77291
541.701,379.461,77323
541.638,377.336,77381
541.576,375.209,77056
541.514,373.083,76956
541.451,370.955,76847
541.389,368.828,76669
541.326,366.7,76881
541.264,364.571,76952
541.202,362.442,77054
541.139,360.312,77206
541.077,358.182,77120
541.015,356.051,76901
540.952,353.92,77195
540.89,351.789,77058
540.827,349.657,76696
540.765,347.524,76570
540.703,345.391,76888
540.64,343.257,76657
540.578,341.123,76627
540.516,338.989,76269
540.453,336.854,76376
540.391,334.718,76410
540.328,332.582,76111
540.266,330.445,75887
540.204,328.308,75991
540.141,326.171,75928
540.079,324.033,75870
540.017,321.894,75598
539.954,319.755,75740
539.892,317.616,75685
539.83,315.476,75946
539.767,313.335,75909
539.705,311.194,76036
539.642,309.053,76010
539.58,306.911,76021
539.518,304.768,76341
539.455,302.625,76358
539.393,300.482,76152
539.331,298.338,76171
539.268,296.194,75884
539.206,294.049,75727
539.143,291.903,75329
539.081,289.757,74932
539.019,287.611,74791
538.956,285.464,74382
538.894,283.316,74526
538.832,281.169,73910
538.769,279.02,74081
538.707,276.871,74148
538.644,274.722,73746
538.582,272.572,73791
538.52,270.421,72608
538.457,268.271,71177
538.395,266.119,69502
538.333,263.967,68018
538.27,261.815,66056
538.208,259.662,64553
538.146,257.508,63437
538.083,255.355,62766
538.021,253.2,62295
537.958,251.045,61783
537.896,248.89,61591
537.834,246.734,61378
537.771,244.578,61188
537.709,242.421,61053
537.647,240.263,61124
537.584,238.105,61106
537.522,235.947,61077
537.459,233.788,60989
537.397,231.629,60949
537.335,229.469,60983
537.272,227.308,61074
537.21,225.147,60982
537.148,222.986,60967
537.085,220.824,60995
537.023,218.662,60982
536.96,216.499,60991
536.898,214.335,61025
536.836,212.171,60944
536.773,210.007,61038
536.711,207.842,60966
553.364,768.549,83878
553.301,766.512,84084
553.239,764.475,84152
553.177,762.437,83785
553.114,760.398,84061
553.052,758.359,84083
552.99,756.32,84152
552.927,754.28,84428
552.865,752.24,83978
552.802,750.199,83685
552.74,748.158,84117
552.678,746.116,83531
552.615,744.074,83995
552.553,742.032,83972
552.491,739.989,83885
552.428,737.945,84205
552.366,735.901,83668
552.304,733.857,83770
552.241,731.812,83441
552.179,729.766,83851
552.116,727.721,83655
552.054,725.674,83618
551.992,723.628,83476
551.929,721.58,83589
551.867,719.533,83345
551.805,717.485,83541
551.742,715.436,83513
551.68,713.387,83663
551.617,711.337,83447
551.555,709.287,83699
551.493,707.237,83354
551.43,705.186,84004
551.368,703.135,83419
551.306,701.083,83699
551.243,699.031,83979
551.181,696.978,83146
551.119,694.925,83381
551.056,692.871,83824
550.994,690.817,83589
550.931,688.762,83979
550.869,686.707,83391
550.807,684.651,83876
550.744,682.595,83533
550.682,680.539,83371
550.62,678.482,83459
550.557,676.425,83260
550.495,674.367,83225
550.432,672.308,83307
550.37,670.25,83106
550.308,668.19,82952
550.245,666.131,83333
550.183,664.07,82788
550.121,662.01,82956
550.058,659.948,83541
549.996,657.887,83136
549.933,655.825,82714
549.871,653.762,82816
549.809,651.699,83067
549.746,649.636,83322
549.684,647.572,82923
549.622,645.507,82972
549.559,643.442,82721
549.497,641.377,83087
549.435,639.311,83186
549.372,637.245,83312
549.31,635.178,82847
549.247,633.111,82918
549.185,631.043,82924
549.123,628.975,83312
549.06,626.906,82901
548.998,624.837,83424
548.936,622.768,83055
548.873,620.698,82999
548.811,618.627,82952
548.748,616.556,82909
548.686,614.485,82869
548.624,612.413,82764
548.561,610.34,82358
548.499,608.267,82522
548.437,606.194,82478
548.374,604.12,82668
548.312,602.046,82169
548.249,599.971,82096
548.187,597.896,81827
548.125,595.82,82084
548.062,593.744,81756
548.0,591.667,81640
547.938,589.59,81514
547.875,587.513,81675
547.813,585.434,81070
547.751,583.356,81253
547.688,581.277,81010
547.626,579.197,81277
547.563,577.117,81076
547.501,575.037,80784
547.439,572.956,80946
547.376,570.875,80765
547.314,568.793,80872
547.252,566.71,80811
547.189,564.628,80405
547.127,562.544,80215
547.064,560.461,80426
547.002,558.376,80393
546.94,556.292,80420
546.877,554.206,80175
546.815,552.121,80627
546.753,550.035,80452
546.69,547.948,79994
546.628,545.861,80490
546.565,543.773,80179
546.503,541.685,80221
546.441,539.597,79818
546.378,537.508,80104
546.316,535.418,80001
546.254,533.328,80202
546.191,531.238,79868
546.129,529.147,80043
546.067,527.056,80208
546.004,524.964,79998
545.942,522.871,80303
545.879,520.778,80391
545.817,518.685,80485
545.755,516.591,80728
545.692,514.497,81533
545.63,512.402,82234
545.568,510.307,83978
545.505,508.211,86230
545.443,506.115,88971
545.38,504.019,90976
545.318,501.922,91465
545.256,499.824,89716
545.193,497.726,87526
545.131,495.627,84865
545.069,493.528,83392
545.006,491.429,82059
544.944,489.329,81477
544.881,487.228,80855
544.819,485.127,80302
544.757,483.026,80148
544.694,480.924,79935
544.632,478.821,79768
544.57,476.718,79650
544.507,474.615,79543
544.445,472.511,79209
544.383,470.407,79468
544.32,468.302,79056
544.258,466.197,78884
544.195,464.091,79124
544.133,461.985,78698
544.071,459.878,78742
544.008,457.771,78584
543.946,455.663,78869
543.884,453.555,78696
543.821,451.446,78060
543.759,449.337,78253
543.696,447.227,78062
543.634,445.117,78123
543.572,443.006,77901
543.509,440.895,78225
543.447,438.784,77673
543.385,436.671,77891
543.322,434.559,77947
543.26,432.446,78114
543.198,430.332,77479
543.135,428.218,78029
543.073,426.104,77943
543.01,423.989,78262
542.948,421.873,77705
542.886,419.757,77981
542.823,417.641,78002
542.761,415.524,77860
542.699,413.407,78124
542.636,411.289,78318
542.574,409.17,77773
542.511,407.051,77895
542.449,404.932,78143
542.387,402.812,78068
542.324,400.692,77909
542.262,398.571,77753
542.2,396.45,77864
542.137,394.328,77831
542.075,392.205,77489
542.012,390.083,77827
541.95,387.959,77453
541.888,385.836,77492
541.825,383.711,77697
541.763,381.587,77052
541.701,379.461,77178
541.638,377.336,77234
541.576,375.209,77230
541.514,373.083,77224
541.451,370.955,77181
541.389,368.828,77159
541.326,366.7,77096
541.264,364.571,77078
541.202,362.442,77468
541.139,360.312,77257
541.077,358.182,77274
541.015,356.051,77048
540.952,353.92,77216
540.89,351.789,77191
540.827,349.657,77028
540.765,347.524,77437
540.703,345.391,77066
540.64,343.257,76814
540.578,341.123,76686
540.516,338.989,76599
540.453,336.854,76371
540.391,334.718,76398
540.328,332.582,76538
540.266,330.445,76255
540.204,328.308,76009
540.141,326.171,76122
540.079,324.033,75765
540.017,321.894,75999
539.954,319.755,76162
539.892,317.616,75920
539.83,315.476,75939
539.767,313.335,76132
539.705,311.194,76283
539.642,309.053,76313
539.58,306.911,76535
539.518,304.768,76553
539.455,302.625,76329
539.393,300.482,76769
539.331,298.338,76101
539.268,296.194,76045
539.206,294.049,75945
539.143,291.903,75788
539.081,289.757,75440
539.019,287.611,74834
538.956,285.464,74665
538.894,283.316,74480
538.832,281.169,74246
538.769,279.02,74298
538.707,276.871,74115
538.644,274.722,74357
538.582,272.572,73926
538.52,270.421,72861
538.457,268.271,71411
538.395,266.119,69712
538.333,263.967,67905
538.27,261.815,66258
538.208,259.662,64756
538.146,257.508,63625
538.083,255.355,62695
538.021,253.2,62189
537.958,251.045,61685
537.896,248.89,61487
537.834,246.734,61316
537.771,244.578,61156
537.709,242.421,61284
537.647,240.263,61154
537.584,238.105,60952
537.522,235.947,61005
537.459,233.788,60918
537.397,231.629,61050
537.335,229.469,60889
537.272,227.308,60950
537.21,225.147,61051
537.148,222.986,60996
537.085,220.824,61021
537.023,218.662,60951
536.96,216.499,60950
536.898,214.335,60833
536.836,212.171,60876
536.773,210.007,60929
536.711,207.842,61011
553.364,768.549,84183
553.301,766.512,85172
553.239,764.475,84704
553.177,762.437,85032
553.114,760.398,84863
553.052,758.359,84948
552.99,756.32,84535
552.927,754.28,85270
552.865,752.24,84713
552.802,750.199,84948
552.74,748.158,84715
552.678,746.116,84377
552.615,744.074,84804
552.553,742.032,85038
552.491,739.989,84743
552.428,737.945,84694
552.366,735.901,84269
552.304,733.857,84320
552.241,731.812,84458
552.179,729.766,84347
552.116,727.721,84104
552.054,725.674,84176
551.992,723.628,84120
551.929,721.58,84503
551.867,719.533,84366
551.805,717.485,84348
551.742,715.436,84440
551.68,713.387,84839
551.617,711.337,84311
551.555,709.287,84302
551.493,707.237,84096
551.43,705.186,84001
551.368,703.135,84190
551.306,701.083,84390
551.243,699.031,84380
551.181,696.978,84405
551.119,694.925,84338
551.056,692.871,84083
550.994,690.817,84842
550.931,688.762,84077
550.869,686.707,84133
550.807,684.651,83964
550.744,682.595,84298
550.682,680.539,84282
550.62,678.482,84395
550.557,676.425,84193
550.495,674.367,84140
550.432,672.308,83938
550.37,670.25,83900
550.308,668.19,83890
550.245,666.131,83835
550.183,664.07,83694
550.121,662.01,83901
550.058,659.948,84301
549.996,657.887,83477
549.933,655.825,83674
549.871,653.762,83429
549.809,651.699,83745
549.746,649.636,83657
549.684,647.572,83674
549.622,645.507,83875
549.559,643.442,83886
549.497,641.377,83737
549.435,639.311,83901
549.372,637.245,83534
549.31,635.178,83900
549.247,633.111,83808
549.185,631.043,83497
549.123,628.975,84074
549.06,626.906,83466
548.998,624.837,83809
548.936,622.768,83821
548.873,620.698,83487
548.811,618.627,83557
548.748,616.556,83413
548.686,614.485,83455
548.624,612.413,83437
548.561,610.34,83169
548.499,608.267,83133
548.437,606.194,83540
548.374,604.12,82879
548.312,602.046,82929
548.249,599.971,83070
548.187,597.896,82830
548.125,595.82,82659
548.062,593.744,82619
548.0,591.667,82750
547.938,589.59,82305
547.875,587.513,82250
547.813,585.434,82473
547.751,583.356,81745
547.688,581.277,81777
547.626,579.197,81620
547.563,577.117,81610
547.501,575.037,81299
547.439,572.956,81592
547.376,570.875,81077
547.314,568.793,81258
547.252,566.71,81186
547.189,564.628,81242
547.127,562.544,81186
547.064,560.461,81210
547.002,558.376,81099
546.94,556.292,81170
546.877,554.206,81051
546.815,552.121,81155
546.753,550.035,81072
546.69,547.948,80897
546.628,545.861,80801
546.565,543.773,80980
546.503,541.685,80894
546.441,539.597,80905
546.378,537.508,80939
546.316,535.418,80681
546.254,533.328,80879
546.191,531.238,80837
546.129,529.147,80516
546.067,527.056,80463
546.004,524.964,80581
545.942,522.871,81243
545.879,520.778,81223
545.817,518.685,81318
545.755,516.591,81588
545.692,514.497,82158
545.63,512.402,82997
545.568,510.307,83975
545.505,508.211,86612
545.443,506.115,89730
545.38,504.019,91649
545.318,501.922,92106
545.256,499.824,90634
545.193,497.726,88168
545.131,495.627,85767
545.069,493.528,83950
545.006,491.429,82972
544.944,489.329,81818
544.881,487.228,81693
544.819,485.127,81167
544.757,483.026,80923
544.694,480.924,80808
544.632,478.821,80137
544.57,476.718,80382
544.507,474.615,80011
544.445,472.511,80334
544.383,470.407,79664
544.32,468.302,79766
544.258,466.197,79888
544.195,464.091,79693
544.133,461.985,79515
544.071,459.878,79517
544.008,457.771,79180
543.946,455.663,78886
543.884,453.555,79055
543.821,451.446,79152
543.759,449.337,78876
543.696,447.227,78701
543.634,445.117,78678
543.572,443.006,79041
543.509,440.895,78749
543.447,438.784,78542
543.385,436.671,78394
543.322,434.559,78578
543.26,432.446,78721
543.198,430.332,78950
543.135,428.218,78396
543.073,426.104,78410
543.01,423.989,78821
542.948,421.873,78518
542.886,419.757,78582
542.823,417.641,78877
542.761,415.524,78697
542.699,413.407,78477
542.636,411.289,78607
542.574,409.17,78658
542.511,407.051,78544
542.449,404.932,78565
542.387,402.812,78519
542.324,400.692,78379
542.262,398.571,78253
542.2,396.45,78569
542.137,394.328,78355
542.075,392.205,78549
542.012,390.083,78414
541.95,387.959,78079
541.888,385.836,78035
541.825,383.711,78117
541.763,381.587,77931
541.701,379.461,77913
541.638,377.336,78026
541.576,375.209,77841
541.514,373.083,77741
541.451,370.955,77827
541.389,368.828,77943
541.326,366.7,77662
541.264,364.571,77872
541.202,362.442,78034
541.139,360.312,78004
541.077,358.182,77994
541.015,356.051,77830
540.952,353.92,77687
540.89,351.789,77724
540.827,349.657,77370
540.765,347.524,77614
540.703,345.391,77651
540.64,343.257,77499
540.578,341.123,77268
540.516,338.989,77175
540.453,336.854,77066
540.391,334.718,77002
540.328,332.582,76914
540.266,330.445,76795
540.204,328.308,76636
540.141,326.171,76605
540.079,324.033,76493
540.017,321.894,76726
539.954,319.755,76562
539.892,317.616,76646
539.83,315.476,76757
539.767,313.335,76387
539.705,311.194,76815
539.642,309.053,76986
539.58,306.911,77052
539.518,304.768,77025
539.455,302.625,76767
539.393,300.482,77063
539.331,298.338,76567
539.268,296.194,76479
539.206,294.049,76628
539.143,291.903,76191
539.081,289.757,75765
539.019,287.611,75645
538.956,285.464,74978
538.894,283.316,74885
538.832,281.169,74820
538.769,279.02,74844
538.707,276.871,74592
538.644,274.722,74795
538.582,272.572,74110
538.52,270.421,73312
538.457,268.271,71817
538.395,266.119,70183
538.333,263.967,68267
538.27,261.815,66469
538.208,259.662,64975
538.146,257.508,63573
538.083,255.355,62864
538.021,253.2,62242
537.958,251.045,61773
537.896,248.89,61578
537.834,246.734,61401
537.771,244.578,61372
537.709,242.421,61213
537.647,240.263,61104
537.584,238.105,61105
537.522,235.947,60993
537.459,233.788,61026
537.397,231.629,60992
537.335,229.469,61034
537.272,227.308,61010
537.21,225.147,60917
537.148,222.986,60910
537.085,220.824,61011
537.023,218.662,60934
536.96,216.499,60965
536.898,214.335,60985
536.836,212.171,60986
536.773,210.007,61011
536.711,207.842,60928
536.661,206.11,60966