File: tomke/20240809_Si_on_TiO2/20240809/raw_data/Si_onTiO2_70mA_30mW_30sec_5acc_517nm_bg.txt
Wavelength(nm), Raman shift(cm^-1), Intensity(counts)
525.364,-194.586,71342
525.301,-196.846,71944
525.239,-199.106,72248
525.177,-201.367,71879
525.114,-203.629,72093
525.052,-205.891,71950
524.99,-208.154,72269
524.927,-210.417,72314
524.865,-212.681,72156
524.802,-214.945,72304
524.74,-217.21,72148
524.678,-219.475,72480
524.615,-221.741,72357
524.553,-224.008,72384
524.491,-226.275,72321
524.428,-228.542,72669
524.366,-230.81,72659
524.304,-233.079,72900
524.241,-235.348,72833
524.179,-237.618,72913
524.116,-239.888,73027
524.054,-242.159,73016
523.992,-244.43,72958
523.929,-246.702,73318
523.867,-248.974,73392
523.805,-251.247,73548
523.742,-253.52,73617
523.68,-255.794,74280
523.617,-258.069,74721
523.555,-260.344,75512
523.493,-262.62,76882
523.43,-264.896,78741
523.368,-267.173,81435
523.306,-269.45,84400
523.243,-271.728,88595
523.181,-274.006,93418
523.119,-276.285,97773
523.056,-278.564,102471
522.994,-280.844,106757
522.931,-283.125,109199
522.869,-285.406,111803
522.807,-287.688,113940
522.744,-289.97,114512
522.682,-292.252,115297
522.62,-294.536,115871
522.557,-296.82,115940
522.495,-299.104,115991
522.432,-301.389,116521
522.37,-303.674,116298
522.308,-305.96,116925
522.245,-308.247,116288
522.183,-310.534,116042
522.121,-312.821,115946
522.058,-315.11,115967
521.996,-317.398,115869
521.933,-319.687,115501
521.871,-321.977,115529
521.809,-324.268,116115
521.746,-326.559,115270
521.684,-328.85,114862
521.622,-331.142,114888
521.559,-333.434,114269
521.497,-335.728,114493
521.435,-338.021,114226
521.372,-340.315,114035
521.31,-342.61,113849
521.247,-344.905,113751
521.185,-347.201,113514
521.123,-349.498,113573
521.06,-351.795,113084
520.998,-354.092,112367
520.936,-356.39,112698
520.873,-358.689,112317
520.811,-360.988,112552
520.748,-363.287,111734
520.686,-365.588,111586
520.624,-367.889,111801
520.561,-370.19,111433
520.499,-372.492,111156
520.437,-374.794,110675
520.374,-377.097,110119
520.312,-379.401,110359
520.249,-381.705,110383
520.187,-384.009,110076
520.125,-386.315,110480
520.062,-388.62,109457
520.0,-390.927,109481
519.938,-393.234,109558
519.875,-395.541,109626
519.813,-397.849,109638
519.751,-400.158,109174
519.688,-402.467,109159
519.626,-404.776,108996
519.563,-407.086,108413
519.501,-409.397,107959
519.439,-411.708,107999
519.376,-414.02,108016
519.314,-416.333,107714
519.252,-418.646,107317
519.189,-420.959,107298
519.127,-423.273,106984
519.064,-425.588,106963
519.002,-427.903,106638
518.94,-430.219,105821
518.877,-432.535,105485
518.815,-434.852,105366
518.753,-437.169,105159
518.69,-439.487,104278
518.628,-441.806,104543
518.565,-444.125,104939
518.503,-446.445,103940
518.441,-448.765,104398
518.378,-451.086,103904
518.316,-453.407,103707
518.254,-455.729,103465
518.191,-458.051,103166
518.129,-460.374,103201
518.067,-462.698,103337
518.004,-465.022,103324
517.942,-467.347,102794
517.879,-469.672,103098
517.817,-471.998,102478
517.755,-474.324,102895
517.692,-476.651,102706
517.63,-478.978,102351
517.568,-481.306,102165
517.505,-483.635,101896
517.443,-485.964,101313
517.38,-488.294,101617
517.318,-490.624,101457
517.256,-492.955,101681
517.193,-495.286,101932
517.131,-497.618,101346
517.069,-499.951,101562
517.006,-502.284,101252
516.944,-504.618,100702
516.881,-506.952,101014
516.819,-509.287,101286
516.757,-511.622,100698
516.694,-513.958,100557
516.632,-516.294,100814
516.57,-518.631,100281
516.507,-520.969,100578
516.445,-523.307,100062
516.383,-525.646,100722
516.32,-527.985,100384
516.258,-530.325,100639
516.195,-532.665,100100
516.133,-535.006,100356
516.071,-537.348,100197
516.008,-539.69,99975
515.946,-542.033,99876
515.884,-544.376,99843
515.821,-546.72,99433
515.759,-549.064,100040
515.696,-551.409,99937
515.634,-553.755,99942
515.572,-556.101,99169
515.509,-558.448,98947
515.447,-560.795,99205
515.385,-563.143,99141
515.322,-565.491,98989
515.26,-567.84,99235
515.198,-570.189,98388
515.135,-572.539,98623
515.073,-574.89,98826
515.01,-577.241,98626
514.948,-579.593,98212
514.886,-581.945,98668
514.823,-584.298,98375
514.761,-586.652,98116
514.699,-589.006,98685
514.636,-591.361,97967
514.574,-593.716,98291
514.511,-596.072,97709
514.449,-598.428,97941
514.387,-600.785,98053
514.324,-603.142,97676
514.262,-605.5,98040
514.2,-607.859,97709
514.137,-610.218,97037
514.075,-612.578,97330
514.012,-614.938,97012
513.95,-617.299,97137
513.888,-619.661,96980
513.825,-622.023,96748
513.763,-624.385,96308
513.701,-626.749,96030
513.638,-629.112,96485
513.576,-631.477,96232
513.514,-633.842,96550
513.451,-636.207,96148
513.389,-638.573,96221
513.326,-640.94,95721
513.264,-643.307,95757
513.202,-645.675,95807
513.139,-648.043,95487
513.077,-650.412,95321
513.015,-652.782,95043
512.952,-655.152,95053
512.89,-657.523,94756
512.827,-659.894,94596
512.765,-662.266,94787
512.703,-664.638,94588
512.64,-667.011,94228
512.578,-669.385,94402
512.516,-671.759,94241
512.453,-674.134,94094
512.391,-676.509,93881
512.328,-678.885,93107
512.266,-681.261,93390
512.204,-683.638,93545
512.141,-686.016,93427
512.079,-688.394,93125
512.017,-690.773,92600
511.954,-693.152,92958
511.892,-695.532,92984
511.83,-697.913,92294
511.767,-700.294,92549
511.705,-702.676,92014
511.642,-705.058,91721
511.58,-707.441,91480
511.518,-709.824,91422
511.455,-712.208,91669
511.393,-714.593,91762
511.331,-716.978,91146
511.268,-719.364,91026
511.206,-721.75,91047
511.143,-724.137,90967
511.081,-726.525,91297
511.019,-728.913,90674
510.956,-731.301,90691
510.894,-733.691,90521
510.832,-736.08,89978
510.769,-738.471,89918
510.707,-740.862,90307
510.644,-743.253,89701
510.582,-745.646,89766
510.52,-748.038,89933
510.457,-750.432,89452
510.395,-752.826,89389
510.333,-755.22,88939
510.27,-757.615,88778
510.208,-760.011,89007
510.146,-762.407,88290
510.083,-764.804,88588
510.021,-767.201,88585
509.958,-769.599,88030
509.896,-771.998,88242
509.834,-774.397,88248
509.771,-776.797,88162
509.709,-779.197,88140
509.647,-781.598,87774
509.584,-784,87561
509.522,-786.402,87515
509.459,-788.805,87223
509.397,-791.208,86765
509.335,-793.612,87044
509.272,-796.016,87009
509.21,-798.421,86805
509.148,-800.827,86549
509.085,-803.233,86427
509.023,-805.64,86516
508.96,-808.048,86254
508.898,-810.456,86144
508.836,-812.864,85977
508.773,-815.274,85546
508.711,-817.683,85777
525.364,-194.586,71724
525.301,-196.846,72205
525.239,-199.106,72034
525.177,-201.367,72238
525.114,-203.629,72155
525.052,-205.891,72109
524.99,-208.154,72321
524.927,-210.417,72480
524.865,-212.681,72557
524.802,-214.945,72415
524.74,-217.21,72582
524.678,-219.475,72484
524.615,-221.741,72709
524.553,-224.008,72598
524.491,-226.275,72979
524.428,-228.542,73040
524.366,-230.81,72635
524.304,-233.079,72828
524.241,-235.348,72749
524.179,-237.618,72916
524.116,-239.888,73204
524.054,-242.159,72760
523.992,-244.43,72920
523.929,-246.702,73306
523.867,-248.974,73794
523.805,-251.247,73638
523.742,-253.52,73798
523.68,-255.794,74285
523.617,-258.069,74938
523.555,-260.344,75851
523.493,-262.62,77322
523.43,-264.896,78817
523.368,-267.173,81665
523.306,-269.45,85123
523.243,-271.728,88876
523.181,-274.006,94083
523.119,-276.285,98841
523.056,-278.564,103305
522.994,-280.844,107660
522.931,-283.125,110569
522.869,-285.406,112161
522.807,-287.688,114383
522.744,-289.97,115141
522.682,-292.252,116666
522.62,-294.536,116648
522.557,-296.82,116617
522.495,-299.104,117275
522.432,-301.389,117275
522.37,-303.674,117612
522.308,-305.96,117132
522.245,-308.247,117110
522.183,-310.534,117699
522.121,-312.821,117106
522.058,-315.11,116887
521.996,-317.398,116729
521.933,-319.687,116011
521.871,-321.977,115660
521.809,-324.268,115974
521.746,-326.559,115843
521.684,-328.85,115333
521.622,-331.142,115732
521.559,-333.434,115359
521.497,-335.728,115066
521.435,-338.021,114884
521.372,-340.315,115330
521.31,-342.61,114996
521.247,-344.905,114581
521.185,-347.201,114312
521.123,-349.498,114117
521.06,-351.795,114361
520.998,-354.092,113877
520.936,-356.39,113517
520.873,-358.689,113617
520.811,-360.988,112807
520.748,-363.287,112798
520.686,-365.588,112561
520.624,-367.889,111901
520.561,-370.19,112527
520.499,-372.492,112113
520.437,-374.794,111366
520.374,-377.097,111622
520.312,-379.401,110949
520.249,-381.705,111603
520.187,-384.009,111030
520.125,-386.315,111488
520.062,-388.62,111255
520.0,-390.927,110632
519.938,-393.234,110812
519.875,-395.541,110020
519.813,-397.849,110080
519.751,-400.158,110017
519.688,-402.467,109764
519.626,-404.776,109881
519.563,-407.086,109432
519.501,-409.397,110043
519.439,-411.708,108995
519.376,-414.02,108980
519.314,-416.333,108379
519.252,-418.646,107986
519.189,-420.959,108307
519.127,-423.273,107977
519.064,-425.588,107384
519.002,-427.903,106621
518.94,-430.219,106830
518.877,-432.535,106628
518.815,-434.852,106346
518.753,-437.169,106059
518.69,-439.487,105665
518.628,-441.806,105325
518.565,-444.125,105151
518.503,-446.445,105355
518.441,-448.765,105132
518.378,-451.086,105340
518.316,-453.407,104554
518.254,-455.729,104447
518.191,-458.051,104621
518.129,-460.374,103882
518.067,-462.698,104045
518.004,-465.022,104194
517.942,-467.347,104007
517.879,-469.672,104146
517.817,-471.998,103724
517.755,-474.324,103584
517.692,-476.651,103432
517.63,-478.978,103080
517.568,-481.306,103358
517.505,-483.635,102516
517.443,-485.964,102114
517.38,-488.294,102463
517.318,-490.624,102714
517.256,-492.955,102431
517.193,-495.286,102080
517.131,-497.618,101722
517.069,-499.951,101893
517.006,-502.284,101462
516.944,-504.618,104220
516.881,-506.952,101355
516.819,-509.287,102018
516.757,-511.622,101769
516.694,-513.958,101202
516.632,-516.294,101688
516.57,-518.631,101659
516.507,-520.969,101405
516.445,-523.307,101357
516.383,-525.646,101503
516.32,-527.985,100569
516.258,-530.325,100797
516.195,-532.665,100963
516.133,-535.006,101291
516.071,-537.348,100817
516.008,-539.69,100954
515.946,-542.033,100454
515.884,-544.376,101038
515.821,-546.72,99988
515.759,-549.064,100477
515.696,-551.409,100271
515.634,-553.755,100431
515.572,-556.101,100250
515.509,-558.448,100176
515.447,-560.795,100003
515.385,-563.143,99601
515.322,-565.491,99721
515.26,-567.84,100236
515.198,-570.189,99263
515.135,-572.539,99359
515.073,-574.89,99321
515.01,-577.241,99384
514.948,-579.593,99254
514.886,-581.945,98965
514.823,-584.298,99173
514.761,-586.652,99112
514.699,-589.006,98958
514.636,-591.361,99028
514.574,-593.716,99535
514.511,-596.072,98533
514.449,-598.428,98773
514.387,-600.785,98545
514.324,-603.142,97845
514.262,-605.5,98359
514.2,-607.859,98589
514.137,-610.218,97488
514.075,-612.578,98391
514.012,-614.938,97643
513.95,-617.299,97420
513.888,-619.661,97709
513.825,-622.023,97422
513.763,-624.385,97186
513.701,-626.749,97516
513.638,-629.112,97101
513.576,-631.477,97225
513.514,-633.842,96679
513.451,-636.207,96517
513.389,-638.573,96593
513.326,-640.94,96046
513.264,-643.307,96508
513.202,-645.675,96000
513.139,-648.043,96064
513.077,-650.412,95783
513.015,-652.782,95714
512.952,-655.152,95414
512.89,-657.523,96151
512.827,-659.894,95414
512.765,-662.266,94979
512.703,-664.638,95539
512.64,-667.011,94663
512.578,-669.385,94945
512.516,-671.759,94567
512.453,-674.134,94801
512.391,-676.509,94369
512.328,-678.885,94663
512.266,-681.261,93951
512.204,-683.638,94187
512.141,-686.016,93703
512.079,-688.394,93452
512.017,-690.773,93163
511.954,-693.152,93149
511.892,-695.532,93434
511.83,-697.913,93645
511.767,-700.294,92631
511.705,-702.676,92703
511.642,-705.058,92539
511.58,-707.441,92082
511.518,-709.824,92837
511.455,-712.208,92046
511.393,-714.593,92204
511.331,-716.978,91861
511.268,-719.364,91846
511.206,-721.75,91829
511.143,-724.137,91574
511.081,-726.525,91871
511.019,-728.913,91420
510.956,-731.301,91331
510.894,-733.691,91154
510.832,-736.08,91331
510.769,-738.471,90873
510.707,-740.862,90808
510.644,-743.253,90576
510.582,-745.646,90367
510.52,-748.038,90667
510.457,-750.432,89927
510.395,-752.826,89910
510.333,-755.22,89789
510.27,-757.615,89372
510.208,-760.011,89978
510.146,-762.407,89299
510.083,-764.804,89157
510.021,-767.201,88723
509.958,-769.599,88988
509.896,-771.998,88452
509.834,-774.397,88287
509.771,-776.797,88241
509.709,-779.197,88341
509.647,-781.598,87915
509.584,-784,88102
509.522,-786.402,87834
509.459,-788.805,87463
509.397,-791.208,87327
509.335,-793.612,87172
509.272,-796.016,86986
509.21,-798.421,87431
509.148,-800.827,87336
509.085,-803.233,86721
509.023,-805.64,86449
508.96,-808.048,86889
508.898,-810.456,86357
508.836,-812.864,86559
508.773,-815.274,86561
508.711,-817.683,86260
525.364,-194.586,71852
525.301,-196.846,72229
525.239,-199.106,72224
525.177,-201.367,72144
525.114,-203.629,72337
525.052,-205.891,72283
524.99,-208.154,72411
524.927,-210.417,72816
524.865,-212.681,72474
524.802,-214.945,72638
524.74,-217.21,72534
524.678,-219.475,72915
524.615,-221.741,72756
524.553,-224.008,72879
524.491,-226.275,72848
524.428,-228.542,73084
524.366,-230.81,72866
524.304,-233.079,73009
524.241,-235.348,72956
524.179,-237.618,72923
524.116,-239.888,73378
524.054,-242.159,73196
523.992,-244.43,73305
523.929,-246.702,73475
523.867,-248.974,73600
523.805,-251.247,73971
523.742,-253.52,73803
523.68,-255.794,74266
523.617,-258.069,74956
523.555,-260.344,76145
523.493,-262.62,77236
523.43,-264.896,78984
523.368,-267.173,81790
523.306,-269.45,85515
523.243,-271.728,89846
523.181,-274.006,94450
523.119,-276.285,99441
523.056,-278.564,103940
522.994,-280.844,108352
522.931,-283.125,111501
522.869,-285.406,113273
522.807,-287.688,114636
522.744,-289.97,115877
522.682,-292.252,117118
522.62,-294.536,118182
522.557,-296.82,118472
522.495,-299.104,118145
522.432,-301.389,118563
522.37,-303.674,118942
522.308,-305.96,118753
522.245,-308.247,118564
522.183,-310.534,117947
522.121,-312.821,118271
522.058,-315.11,117871
521.996,-317.398,117459
521.933,-319.687,117611
521.871,-321.977,117650
521.809,-324.268,117030
521.746,-326.559,117232
521.684,-328.85,117285
521.622,-331.142,116281
521.559,-333.434,115999
521.497,-335.728,116897
521.435,-338.021,115898
521.372,-340.315,116342
521.31,-342.61,115533
521.247,-344.905,116140
521.185,-347.201,115694
521.123,-349.498,115245
521.06,-351.795,115303
520.998,-354.092,115085
520.936,-356.39,114494
520.873,-358.689,114636
520.811,-360.988,114495
520.748,-363.287,114135
520.686,-365.588,113736
520.624,-367.889,113026
520.561,-370.19,113652
520.499,-372.492,113324
520.437,-374.794,112308
520.374,-377.097,112661
520.312,-379.401,111991
520.249,-381.705,112116
520.187,-384.009,111954
520.125,-386.315,111845
520.062,-388.62,112077
520.0,-390.927,111619
519.938,-393.234,111302
519.875,-395.541,111739
519.813,-397.849,111551
519.751,-400.158,111377
519.688,-402.467,110741
519.626,-404.776,110922
519.563,-407.086,110466
519.501,-409.397,110102
519.439,-411.708,110159
519.376,-414.02,109675
519.314,-416.333,109496
519.252,-418.646,109064
519.189,-420.959,109084
519.127,-423.273,108622
519.064,-425.588,108858
519.002,-427.903,108214
518.94,-430.219,107151
518.877,-432.535,107264
518.815,-434.852,107012
518.753,-437.169,106789
518.69,-439.487,106774
518.628,-441.806,106805
518.565,-444.125,106727
518.503,-446.445,106230
518.441,-448.765,105725
518.378,-451.086,105947
518.316,-453.407,106162
518.254,-455.729,106004
518.191,-458.051,105628
518.129,-460.374,105538
518.067,-462.698,105552
518.004,-465.022,104821
517.942,-467.347,104786
517.879,-469.672,104423
517.817,-471.998,104571
517.755,-474.324,104733
517.692,-476.651,104106
517.63,-478.978,103753
517.568,-481.306,103983
517.505,-483.635,103221
517.443,-485.964,103579
517.38,-488.294,103813
517.318,-490.624,102834
517.256,-492.955,102986
517.193,-495.286,103517
517.131,-497.618,103069
517.069,-499.951,102813
517.006,-502.284,102978
516.944,-504.618,102959
516.881,-506.952,102343
516.819,-509.287,102275
516.757,-511.622,102465
516.694,-513.958,102225
516.632,-516.294,102043
516.57,-518.631,102522
516.507,-520.969,101931
516.445,-523.307,102290
516.383,-525.646,102425
516.32,-527.985,101813
516.258,-530.325,102421
516.195,-532.665,101896
516.133,-535.006,101869
516.071,-537.348,101563
516.008,-539.69,101334
515.946,-542.033,101484
515.884,-544.376,101344
515.821,-546.72,101131
515.759,-549.064,101024
515.696,-551.409,101129
515.634,-553.755,101438
515.572,-556.101,101274
515.509,-558.448,101082
515.447,-560.795,100978
515.385,-563.143,100929
515.322,-565.491,100733
515.26,-567.84,100280
515.198,-570.189,100245
515.135,-572.539,100330
515.073,-574.89,100449
515.01,-577.241,100251
514.948,-579.593,99858
514.886,-581.945,100457
514.823,-584.298,99821
514.761,-586.652,100093
514.699,-589.006,99652
514.636,-591.361,99736
514.574,-593.716,99874
514.511,-596.072,99801
514.449,-598.428,99747
514.387,-600.785,99601
514.324,-603.142,99102
514.262,-605.5,98954
514.2,-607.859,98624
514.137,-610.218,99185
514.075,-612.578,99007
514.012,-614.938,98538
513.95,-617.299,98557
513.888,-619.661,98077
513.825,-622.023,97960
513.763,-624.385,98250
513.701,-626.749,98015
513.638,-629.112,97560
513.576,-631.477,97995
513.514,-633.842,97218
513.451,-636.207,97348
513.389,-638.573,97414
513.326,-640.94,97478
513.264,-643.307,96960
513.202,-645.675,96792
513.139,-648.043,97055
513.077,-650.412,96983
513.015,-652.782,95853
512.952,-655.152,96316
512.89,-657.523,96042
512.827,-659.894,96321
512.765,-662.266,96240
512.703,-664.638,95678
512.64,-667.011,95844
512.578,-669.385,95679
512.516,-671.759,95550
512.453,-674.134,95359
512.391,-676.509,95342
512.328,-678.885,94955
512.266,-681.261,94785
512.204,-683.638,94973
512.141,-686.016,94398
512.079,-688.394,94281
512.017,-690.773,94208
511.954,-693.152,93835
511.892,-695.532,93436
511.83,-697.913,94025
511.767,-700.294,94005
511.705,-702.676,93195
511.642,-705.058,92960
511.58,-707.441,93343
511.518,-709.824,93259
511.455,-712.208,92760
511.393,-714.593,92969
511.331,-716.978,92760
511.268,-719.364,92320
511.206,-721.75,92002
511.143,-724.137,92362
511.081,-726.525,92160
511.019,-728.913,91862
510.956,-731.301,91601
510.894,-733.691,91970
510.832,-736.08,91592
510.769,-738.471,91512
510.707,-740.862,91619
510.644,-743.253,91372
510.582,-745.646,90940
510.52,-748.038,91252
510.457,-750.432,90752
510.395,-752.826,90192
510.333,-755.22,90425
510.27,-757.615,90012
510.208,-760.011,90127
510.146,-762.407,90189
510.083,-764.804,89626
510.021,-767.201,89696
509.958,-769.599,89917
509.896,-771.998,88825
509.834,-774.397,88635
509.771,-776.797,89370
509.709,-779.197,88979
509.647,-781.598,88704
509.584,-784,88475
509.522,-786.402,88607
509.459,-788.805,88409
509.397,-791.208,88196
509.335,-793.612,88057
509.272,-796.016,88062
509.21,-798.421,87759
509.148,-800.827,87951
509.085,-803.233,87317
509.023,-805.64,87085
508.96,-808.048,87139
508.898,-810.456,87292
508.836,-812.864,86944
508.773,-815.274,86751
508.711,-817.683,86602
525.364,-194.586,71803
525.301,-196.846,72367
525.239,-199.106,72711
525.177,-201.367,72154
525.114,-203.629,72589
525.052,-205.891,72550
524.99,-208.154,72644
524.927,-210.417,72469
524.865,-212.681,72753
524.802,-214.945,72575
524.74,-217.21,72873
524.678,-219.475,72798
524.615,-221.741,72849
524.553,-224.008,72961
524.491,-226.275,72995
524.428,-228.542,73198
524.366,-230.81,73414
524.304,-233.079,73212
524.241,-235.348,73140
524.179,-237.618,73272
524.116,-239.888,73548
524.054,-242.159,73338
523.992,-244.43,73419
523.929,-246.702,73693
523.867,-248.974,73635
523.805,-251.247,73861
523.742,-253.52,74154
523.68,-255.794,74737
523.617,-258.069,75372
523.555,-260.344,76187
523.493,-262.62,77568
523.43,-264.896,79729
523.368,-267.173,81953
523.306,-269.45,86019
523.243,-271.728,90290
523.181,-274.006,95269
523.119,-276.285,100320
523.056,-278.564,104836
522.994,-280.844,109129
522.931,-283.125,111743
522.869,-285.406,115185
522.807,-287.688,116369
522.744,-289.97,117382
522.682,-292.252,118609
522.62,-294.536,119076
522.557,-296.82,119565
522.495,-299.104,119324
522.432,-301.389,118907
522.37,-303.674,119914
522.308,-305.96,119769
522.245,-308.247,119317
522.183,-310.534,119378
522.121,-312.821,119002
522.058,-315.11,119049
521.996,-317.398,118510
521.933,-319.687,118825
521.871,-321.977,118056
521.809,-324.268,118415
521.746,-326.559,117484
521.684,-328.85,117956
521.622,-331.142,117587
521.559,-333.434,117382
521.497,-335.728,118048
521.435,-338.021,117246
521.372,-340.315,116985
521.31,-342.61,116627
521.247,-344.905,116883
521.185,-347.201,117055
521.123,-349.498,116905
521.06,-351.795,116779
520.998,-354.092,115747
520.936,-356.39,116002
520.873,-358.689,115476
520.811,-360.988,114789
520.748,-363.287,114996
520.686,-365.588,114924
520.624,-367.889,114488
520.561,-370.19,114169
520.499,-372.492,113494
520.437,-374.794,113811
520.374,-377.097,113419
520.312,-379.401,113518
520.249,-381.705,112916
520.187,-384.009,113005
520.125,-386.315,112518
520.062,-388.62,112886
520.0,-390.927,112444
519.938,-393.234,112740
519.875,-395.541,112557
519.813,-397.849,112371
519.751,-400.158,112244
519.688,-402.467,111625
519.626,-404.776,110911
519.563,-407.086,111859
519.501,-409.397,111193
519.439,-411.708,111201
519.376,-414.02,110155
519.314,-416.333,110981
519.252,-418.646,110258
519.189,-420.959,110426
519.127,-423.273,109830
519.064,-425.588,109296
519.002,-427.903,108870
518.94,-430.219,108906
518.877,-432.535,108220
518.815,-434.852,108154
518.753,-437.169,107777
518.69,-439.487,107554
518.628,-441.806,107406
518.565,-444.125,107134
518.503,-446.445,106953
518.441,-448.765,107249
518.378,-451.086,106979
518.316,-453.407,106404
518.254,-455.729,105750
518.191,-458.051,106402
518.129,-460.374,106125
518.067,-462.698,106011
518.004,-465.022,105521
517.942,-467.347,105816
517.879,-469.672,105764
517.817,-471.998,104929
517.755,-474.324,105253
517.692,-476.651,104917
517.63,-478.978,104607
517.568,-481.306,104386
517.505,-483.635,104711
517.443,-485.964,104412
517.38,-488.294,103870
517.318,-490.624,103978
517.256,-492.955,103986
517.193,-495.286,103916
517.131,-497.618,103982
517.069,-499.951,103699
517.006,-502.284,103407
516.944,-504.618,103386
516.881,-506.952,103398
516.819,-509.287,103428
516.757,-511.622,103184
516.694,-513.958,103396
516.632,-516.294,103252
516.57,-518.631,103347
516.507,-520.969,102668
516.445,-523.307,103122
516.383,-525.646,102600
516.32,-527.985,102729
516.258,-530.325,102761
516.195,-532.665,102434
516.133,-535.006,102770
516.071,-537.348,102690
516.008,-539.69,102835
515.946,-542.033,102591
515.884,-544.376,102625
515.821,-546.72,101985
515.759,-549.064,102459
515.696,-551.409,101891
515.634,-553.755,101865
515.572,-556.101,101924
515.509,-558.448,101472
515.447,-560.795,101871
515.385,-563.143,101520
515.322,-565.491,100984
515.26,-567.84,101379
515.198,-570.189,101208
515.135,-572.539,101128
515.073,-574.89,100687
515.01,-577.241,101488
514.948,-579.593,100727
514.886,-581.945,100857
514.823,-584.298,100722
514.761,-586.652,100869
514.699,-589.006,100720
514.636,-591.361,100026
514.574,-593.716,100631
514.511,-596.072,100022
514.449,-598.428,100287
514.387,-600.785,100302
514.324,-603.142,100322
514.262,-605.5,99768
514.2,-607.859,99612
514.137,-610.218,99922
514.075,-612.578,99848
514.012,-614.938,99109
513.95,-617.299,99476
513.888,-619.661,98576
513.825,-622.023,98788
513.763,-624.385,98816
513.701,-626.749,99035
513.638,-629.112,98757
513.576,-631.477,98178
513.514,-633.842,98044
513.451,-636.207,98194
513.389,-638.573,97993
513.326,-640.94,97714
513.264,-643.307,97824
513.202,-645.675,97263
513.139,-648.043,97223
513.077,-650.412,97148
513.015,-652.782,96962
512.952,-655.152,97002
512.89,-657.523,96481
512.827,-659.894,96829
512.765,-662.266,97042
512.703,-664.638,96701
512.64,-667.011,96110
512.578,-669.385,96265
512.516,-671.759,95989
512.453,-674.134,96348
512.391,-676.509,95890
512.328,-678.885,95932
512.266,-681.261,95399
512.204,-683.638,95254
512.141,-686.016,95010
512.079,-688.394,94917
512.017,-690.773,94970
511.954,-693.152,94711
511.892,-695.532,94652
511.83,-697.913,94381
511.767,-700.294,94517
511.705,-702.676,94020
511.642,-705.058,94151
511.58,-707.441,93954
511.518,-709.824,93572
511.455,-712.208,93069
511.393,-714.593,93704
511.331,-716.978,94099
511.268,-719.364,92580
511.206,-721.75,92759
511.143,-724.137,92960
511.081,-726.525,92916
511.019,-728.913,92576
510.956,-731.301,92585
510.894,-733.691,92655
510.832,-736.08,92229
510.769,-738.471,91986
510.707,-740.862,92031
510.644,-743.253,91472
510.582,-745.646,91759
510.52,-748.038,91075
510.457,-750.432,91154
510.395,-752.826,91069
510.333,-755.22,91018
510.27,-757.615,90859
510.208,-760.011,90654
510.146,-762.407,90341
510.083,-764.804,90607
510.021,-767.201,89786
509.958,-769.599,90051
509.896,-771.998,89676
509.834,-774.397,89430
509.771,-776.797,89330
509.709,-779.197,89333
509.647,-781.598,89058
509.584,-784,89180
509.522,-786.402,89208
509.459,-788.805,88890
509.397,-791.208,88543
509.335,-793.612,88480
509.272,-796.016,88475
509.21,-798.421,88759
509.148,-800.827,88214
509.085,-803.233,88185
509.023,-805.64,87740
508.96,-808.048,87896
508.898,-810.456,87489
508.836,-812.864,87421
508.773,-815.274,87878
508.711,-817.683,87270
525.364,-194.586,72027
525.301,-196.846,72492
525.239,-199.106,72189
525.177,-201.367,72311
525.114,-203.629,72627
525.052,-205.891,72790
524.99,-208.154,72644
524.927,-210.417,72894
524.865,-212.681,72856
524.802,-214.945,72862
524.74,-217.21,73190
524.678,-219.475,72913
524.615,-221.741,73156
524.553,-224.008,73109
524.491,-226.275,73007
524.428,-228.542,73503
524.366,-230.81,73363
524.304,-233.079,73586
524.241,-235.348,73207
524.179,-237.618,73455
524.116,-239.888,73380
524.054,-242.159,73458
523.992,-244.43,73956
523.929,-246.702,73939
523.867,-248.974,73697
523.805,-251.247,74078
523.742,-253.52,74587
523.68,-255.794,75094
523.617,-258.069,75530
523.555,-260.344,76524
523.493,-262.62,77906
523.43,-264.896,79704
523.368,-267.173,82532
523.306,-269.45,85790
523.243,-271.728,90575
523.181,-274.006,95949
523.119,-276.285,100539
523.056,-278.564,105763
522.994,-280.844,109640
522.931,-283.125,112349
522.869,-285.406,115739
522.807,-287.688,117598
522.744,-289.97,119007
522.682,-292.252,119696
522.62,-294.536,120221
522.557,-296.82,120146
522.495,-299.104,120624
522.432,-301.389,120564
522.37,-303.674,120605
522.308,-305.96,120613
522.245,-308.247,120768
522.183,-310.534,120342
522.121,-312.821,120644
522.058,-315.11,120251
521.996,-317.398,119799
521.933,-319.687,119779
521.871,-321.977,119490
521.809,-324.268,119286
521.746,-326.559,118840
521.684,-328.85,118665
521.622,-331.142,118489
521.559,-333.434,118797
521.497,-335.728,118429
521.435,-338.021,118234
521.372,-340.315,118475
521.31,-342.61,117926
521.247,-344.905,117687
521.185,-347.201,117438
521.123,-349.498,117464
521.06,-351.795,117182
520.998,-354.092,116296
520.936,-356.39,116907
520.873,-358.689,116731
520.811,-360.988,116157
520.748,-363.287,115397
520.686,-365.588,115610
520.624,-367.889,115193
520.561,-370.19,115442
520.499,-372.492,114561
520.437,-374.794,114334
520.374,-377.097,114313
520.312,-379.401,114537
520.249,-381.705,113925
520.187,-384.009,113996
520.125,-386.315,113877
520.062,-388.62,113524
520.0,-390.927,113561
519.938,-393.234,113237
519.875,-395.541,113756
519.813,-397.849,113527
519.751,-400.158,113131
519.688,-402.467,112865
519.626,-404.776,112627
519.563,-407.086,111991
519.501,-409.397,111591
519.439,-411.708,112170
519.376,-414.02,112016
519.314,-416.333,111984
519.252,-418.646,110917
519.189,-420.959,110763
519.127,-423.273,110739
519.064,-425.588,110138
519.002,-427.903,109457
518.94,-430.219,109298
518.877,-432.535,109143
518.815,-434.852,108740
518.753,-437.169,108548
518.69,-439.487,108034
518.628,-441.806,108190
518.565,-444.125,108091
518.503,-446.445,107866
518.441,-448.765,107470
518.378,-451.086,107556
518.316,-453.407,107259
518.254,-455.729,107008
518.191,-458.051,107272
518.129,-460.374,106859
518.067,-462.698,107081
518.004,-465.022,106377
517.942,-467.347,106828
517.879,-469.672,106426
517.817,-471.998,105903
517.755,-474.324,105512
517.692,-476.651,105388
517.63,-478.978,105364
517.568,-481.306,105811
517.505,-483.635,105399
517.443,-485.964,105353
517.38,-488.294,104988
517.318,-490.624,104890
517.256,-492.955,105000
517.193,-495.286,104809
517.131,-497.618,104655
517.069,-499.951,105016
517.006,-502.284,104271
516.944,-504.618,104270
516.881,-506.952,104047
516.819,-509.287,104017
516.757,-511.622,103812
516.694,-513.958,103919
516.632,-516.294,103732
516.57,-518.631,103874
516.507,-520.969,104013
516.445,-523.307,103968
516.383,-525.646,103986
516.32,-527.985,103539
516.258,-530.325,103642
516.195,-532.665,103608
516.133,-535.006,103253
516.071,-537.348,103315
516.008,-539.69,103171
515.946,-542.033,103845
515.884,-544.376,102543
515.821,-546.72,103122
515.759,-549.064,102881
515.696,-551.409,103037
515.634,-553.755,102528
515.572,-556.101,103069
515.509,-558.448,102734
515.447,-560.795,102366
515.385,-563.143,102161
515.322,-565.491,101816
515.26,-567.84,102199
515.198,-570.189,101912
515.135,-572.539,101356
515.073,-574.89,102354
515.01,-577.241,101611
514.948,-579.593,101286
514.886,-581.945,101671
514.823,-584.298,101012
514.761,-586.652,101126
514.699,-589.006,101497
514.636,-591.361,101158
514.574,-593.716,101266
514.511,-596.072,101166
514.449,-598.428,100859
514.387,-600.785,100990
514.324,-603.142,100737
514.262,-605.5,100833
514.2,-607.859,100549
514.137,-610.218,100585
514.075,-612.578,100601
514.012,-614.938,99829
513.95,-617.299,100279
513.888,-619.661,99791
513.825,-622.023,100051
513.763,-624.385,99730
513.701,-626.749,98870
513.638,-629.112,98867
513.576,-631.477,99095
513.514,-633.842,98894
513.451,-636.207,98703
513.389,-638.573,98708
513.326,-640.94,98551
513.264,-643.307,98389
513.202,-645.675,98164
513.139,-648.043,98209
513.077,-650.412,98020
513.015,-652.782,97954
512.952,-655.152,97673
512.89,-657.523,97419
512.827,-659.894,97292
512.765,-662.266,97396
512.703,-664.638,97363
512.64,-667.011,97372
512.578,-669.385,97102
512.516,-671.759,96975
512.453,-674.134,96983
512.391,-676.509,96666
512.328,-678.885,96589
512.266,-681.261,96175
512.204,-683.638,96040
512.141,-686.016,95694
512.079,-688.394,95943
512.017,-690.773,95606
511.954,-693.152,95641
511.892,-695.532,95718
511.83,-697.913,94891
511.767,-700.294,94881
511.705,-702.676,94669
511.642,-705.058,94802
511.58,-707.441,94580
511.518,-709.824,94262
511.455,-712.208,93703
511.393,-714.593,94170
511.331,-716.978,94068
511.268,-719.364,93511
511.206,-721.75,93371
511.143,-724.137,93505
511.081,-726.525,93528
511.019,-728.913,93115
510.956,-731.301,93319
510.894,-733.691,93076
510.832,-736.08,92848
510.769,-738.471,92417
510.707,-740.862,92266
510.644,-743.253,92244
510.582,-745.646,92412
510.52,-748.038,92129
510.457,-750.432,91857
510.395,-752.826,91703
510.333,-755.22,91768
510.27,-757.615,91636
510.208,-760.011,91072
510.146,-762.407,91082
510.083,-764.804,90733
510.021,-767.201,90663
509.958,-769.599,90856
509.896,-771.998,90572
509.834,-774.397,90161
509.771,-776.797,90063
509.709,-779.197,90040
509.647,-781.598,89872
509.584,-784,89662
509.522,-786.402,89458
509.459,-788.805,89353
509.397,-791.208,89143
509.335,-793.612,89009
509.272,-796.016,88999
509.21,-798.421,88720
509.148,-800.827,88855
509.085,-803.233,88613
509.023,-805.64,88580
508.96,-808.048,88267
508.898,-810.456,88450
508.836,-812.864,87793
508.773,-815.274,87894
508.711,-817.683,87503
508.661,-819.612,87827