File: tomke/20240809_Si_on_TiO2/20240809/raw_data/Si_onTiO2_80mA_30mW_30sec_5acc_517nm_bg.txt
Wavelength(nm), Raman shift(cm^-1), Intensity(counts)
525.364,-194.586,67573
525.301,-196.846,67968
525.239,-199.106,67576
525.177,-201.367,67624
525.114,-203.629,67855
525.052,-205.891,67888
524.99,-208.154,67942
524.927,-210.417,67865
524.865,-212.681,67794
524.802,-214.945,68117
524.74,-217.21,68073
524.678,-219.475,67950
524.615,-221.741,68094
524.553,-224.008,68126
524.491,-226.275,68142
524.428,-228.542,68265
524.366,-230.81,68066
524.304,-233.079,68168
524.241,-235.348,68143
524.179,-237.618,68210
524.116,-239.888,68292
524.054,-242.159,68576
523.992,-244.43,68510
523.929,-246.702,68309
523.867,-248.974,68486
523.805,-251.247,68776
523.742,-253.52,68908
523.68,-255.794,69258
523.617,-258.069,69319
523.555,-260.344,69576
523.493,-262.62,70289
523.43,-264.896,71310
523.368,-267.173,72570
523.306,-269.45,74154
523.243,-271.728,76328
523.181,-274.006,78837
523.119,-276.285,81014
523.056,-278.564,83070
522.994,-280.844,85027
522.931,-283.125,86307
522.869,-285.406,87436
522.807,-287.688,88318
522.744,-289.97,88865
522.682,-292.252,88855
522.62,-294.536,89486
522.557,-296.82,89274
522.495,-299.104,89674
522.432,-301.389,89369
522.37,-303.674,90099
522.308,-305.96,89522
522.245,-308.247,89837
522.183,-310.534,89110
522.121,-312.821,89482
522.058,-315.11,89198
521.996,-317.398,89095
521.933,-319.687,89013
521.871,-321.977,88877
521.809,-324.268,88639
521.746,-326.559,88214
521.684,-328.85,88544
521.622,-331.142,88536
521.559,-333.434,88741
521.497,-335.728,88156
521.435,-338.021,88290
521.372,-340.315,88361
521.31,-342.61,88092
521.247,-344.905,87831
521.185,-347.201,88043
521.123,-349.498,87884
521.06,-351.795,87818
520.998,-354.092,87523
520.936,-356.39,87366
520.873,-358.689,87229
520.811,-360.988,87055
520.748,-363.287,86632
520.686,-365.588,86946
520.624,-367.889,86209
520.561,-370.19,86504
520.499,-372.492,86505
520.437,-374.794,86308
520.374,-377.097,85944
520.312,-379.401,86053
520.249,-381.705,86008
520.187,-384.009,85754
520.125,-386.315,85293
520.062,-388.62,85817
520.0,-390.927,85666
519.938,-393.234,85427
519.875,-395.541,85718
519.813,-397.849,85446
519.751,-400.158,85693
519.688,-402.467,85055
519.626,-404.776,84859
519.563,-407.086,84862
519.501,-409.397,84957
519.439,-411.708,84448
519.376,-414.02,84485
519.314,-416.333,84127
519.252,-418.646,84070
519.189,-420.959,84079
519.127,-423.273,84313
519.064,-425.588,83652
519.002,-427.903,83407
518.94,-430.219,83326
518.877,-432.535,83116
518.815,-434.852,82999
518.753,-437.169,82707
518.69,-439.487,82861
518.628,-441.806,82966
518.565,-444.125,82588
518.503,-446.445,82260
518.441,-448.765,82338
518.378,-451.086,82309
518.316,-453.407,82118
518.254,-455.729,82255
518.191,-458.051,82261
518.129,-460.374,81905
518.067,-462.698,81409
518.004,-465.022,81614
517.942,-467.347,81803
517.879,-469.672,81542
517.817,-471.998,81713
517.755,-474.324,81315
517.692,-476.651,81092
517.63,-478.978,80887
517.568,-481.306,81107
517.505,-483.635,81095
517.443,-485.964,80945
517.38,-488.294,80969
517.318,-490.624,80736
517.256,-492.955,80636
517.193,-495.286,80430
517.131,-497.618,80930
517.069,-499.951,80867
517.006,-502.284,80658
516.944,-504.618,80343
516.881,-506.952,80494
516.819,-509.287,80533
516.757,-511.622,80363
516.694,-513.958,80550
516.632,-516.294,80356
516.57,-518.631,80320
516.507,-520.969,80556
516.445,-523.307,80205
516.383,-525.646,80146
516.32,-527.985,80175
516.258,-530.325,80350
516.195,-532.665,79813
516.133,-535.006,79815
516.071,-537.348,80021
516.008,-539.69,80211
515.946,-542.033,79983
515.884,-544.376,80103
515.821,-546.72,79733
515.759,-549.064,79335
515.696,-551.409,79568
515.634,-553.755,79740
515.572,-556.101,79398
515.509,-558.448,79745
515.447,-560.795,79487
515.385,-563.143,79681
515.322,-565.491,79127
515.26,-567.84,79400
515.198,-570.189,79335
515.135,-572.539,79349
515.073,-574.89,79377
515.01,-577.241,79215
514.948,-579.593,79399
514.886,-581.945,79092
514.823,-584.298,79150
514.761,-586.652,79255
514.699,-589.006,78868
514.636,-591.361,79069
514.574,-593.716,78995
514.511,-596.072,78913
514.449,-598.428,78682
514.387,-600.785,78892
514.324,-603.142,78885
514.262,-605.5,78711
514.2,-607.859,78630
514.137,-610.218,78429
514.075,-612.578,78333
514.012,-614.938,78460
513.95,-617.299,78222
513.888,-619.661,78419
513.825,-622.023,78444
513.763,-624.385,78292
513.701,-626.749,77781
513.638,-629.112,77999
513.576,-631.477,77917
513.514,-633.842,78076
513.451,-636.207,77608
513.389,-638.573,78021
513.326,-640.94,77764
513.264,-643.307,77271
513.202,-645.675,77614
513.139,-648.043,77809
513.077,-650.412,77570
513.015,-652.782,77459
512.952,-655.152,77492
512.89,-657.523,77096
512.827,-659.894,77482
512.765,-662.266,77369
512.703,-664.638,77084
512.64,-667.011,77038
512.578,-669.385,77240
512.516,-671.759,77003
512.453,-674.134,76541
512.391,-676.509,76783
512.328,-678.885,76554
512.266,-681.261,76629
512.204,-683.638,76499
512.141,-686.016,76855
512.079,-688.394,76264
512.017,-690.773,76571
511.954,-693.152,76415
511.892,-695.532,76356
511.83,-697.913,76274
511.767,-700.294,76207
511.705,-702.676,76291
511.642,-705.058,76096
511.58,-707.441,75574
511.518,-709.824,76103
511.455,-712.208,75636
511.393,-714.593,75592
511.331,-716.978,75447
511.268,-719.364,75736
511.206,-721.75,75579
511.143,-724.137,75094
511.081,-726.525,75060
511.019,-728.913,75251
510.956,-731.301,75455
510.894,-733.691,75187
510.832,-736.08,75231
510.769,-738.471,75053
510.707,-740.862,74923
510.644,-743.253,74747
510.582,-745.646,75215
510.52,-748.038,74708
510.457,-750.432,74715
510.395,-752.826,74868
510.333,-755.22,74469
510.27,-757.615,74661
510.208,-760.011,74153
510.146,-762.407,74354
510.083,-764.804,74172
510.021,-767.201,73696
509.958,-769.599,74181
509.896,-771.998,73837
509.834,-774.397,74255
509.771,-776.797,73720
509.709,-779.197,74029
509.647,-781.598,73684
509.584,-784,73743
509.522,-786.402,73778
509.459,-788.805,73594
509.397,-791.208,73410
509.335,-793.612,73339
509.272,-796.016,73336
509.21,-798.421,73461
509.148,-800.827,73118
509.085,-803.233,73627
509.023,-805.64,73204
508.96,-808.048,73290
508.898,-810.456,73070
508.836,-812.864,73109
508.773,-815.274,72745
508.711,-817.683,73108
525.364,-194.586,68067
525.301,-196.846,68394
525.239,-199.106,68070
525.177,-201.367,68358
525.114,-203.629,68283
525.052,-205.891,68235
524.99,-208.154,68224
524.927,-210.417,68430
524.865,-212.681,68581
524.802,-214.945,68607
524.74,-217.21,68544
524.678,-219.475,68708
524.615,-221.741,68588
524.553,-224.008,68695
524.491,-226.275,68674
524.428,-228.542,68472
524.366,-230.81,68968
524.304,-233.079,68780
524.241,-235.348,68641
524.179,-237.618,68749
524.116,-239.888,68970
524.054,-242.159,68849
523.992,-244.43,68799
523.929,-246.702,69165
523.867,-248.974,69328
523.805,-251.247,69147
523.742,-253.52,69531
523.68,-255.794,69728
523.617,-258.069,69908
523.555,-260.344,70402
523.493,-262.62,70944
523.43,-264.896,72164
523.368,-267.173,73263
523.306,-269.45,75453
523.243,-271.728,77476
523.181,-274.006,80176
523.119,-276.285,82832
523.056,-278.564,85298
522.994,-280.844,87106
522.931,-283.125,88436
522.869,-285.406,89828
522.807,-287.688,91193
522.744,-289.97,91580
522.682,-292.252,92115
522.62,-294.536,91886
522.557,-296.82,92387
522.495,-299.104,92178
522.432,-301.389,92047
522.37,-303.674,92420
522.308,-305.96,92304
522.245,-308.247,92440
522.183,-310.534,92170
522.121,-312.821,91793
522.058,-315.11,91949
521.996,-317.398,91626
521.933,-319.687,91519
521.871,-321.977,91918
521.809,-324.268,91528
521.746,-326.559,91658
521.684,-328.85,91528
521.622,-331.142,91009
521.559,-333.434,91259
521.497,-335.728,90467
521.435,-338.021,90913
521.372,-340.315,91269
521.31,-342.61,90576
521.247,-344.905,90447
521.185,-347.201,91082
521.123,-349.498,90591
521.06,-351.795,90025
520.998,-354.092,90199
520.936,-356.39,89912
520.873,-358.689,89355
520.811,-360.988,89728
520.748,-363.287,89034
520.686,-365.588,89692
520.624,-367.889,89253
520.561,-370.19,88995
520.499,-372.492,89125
520.437,-374.794,88833
520.374,-377.097,88744
520.312,-379.401,88633
520.249,-381.705,88325
520.187,-384.009,88034
520.125,-386.315,88037
520.062,-388.62,88166
520.0,-390.927,88078
519.938,-393.234,87726
519.875,-395.541,87628
519.813,-397.849,87663
519.751,-400.158,87706
519.688,-402.467,87606
519.626,-404.776,87311
519.563,-407.086,87678
519.501,-409.397,87054
519.439,-411.708,86810
519.376,-414.02,87037
519.314,-416.333,86606
519.252,-418.646,86447
519.189,-420.959,86108
519.127,-423.273,86423
519.064,-425.588,86101
519.002,-427.903,85879
518.94,-430.219,85357
518.877,-432.535,85291
518.815,-434.852,85357
518.753,-437.169,85170
518.69,-439.487,84681
518.628,-441.806,84741
518.565,-444.125,84873
518.503,-446.445,84365
518.441,-448.765,84315
518.378,-451.086,84401
518.316,-453.407,84535
518.254,-455.729,84247
518.191,-458.051,83964
518.129,-460.374,83763
518.067,-462.698,84039
518.004,-465.022,83892
517.942,-467.347,83696
517.879,-469.672,83496
517.817,-471.998,83539
517.755,-474.324,83661
517.692,-476.651,83255
517.63,-478.978,83129
517.568,-481.306,83151
517.505,-483.635,83039
517.443,-485.964,83119
517.38,-488.294,82718
517.318,-490.624,82508
517.256,-492.955,82645
517.193,-495.286,82759
517.131,-497.618,82642
517.069,-499.951,82945
517.006,-502.284,82626
516.944,-504.618,82364
516.881,-506.952,82526
516.819,-509.287,82417
516.757,-511.622,82063
516.694,-513.958,82735
516.632,-516.294,82423
516.57,-518.631,82435
516.507,-520.969,82432
516.445,-523.307,82295
516.383,-525.646,81867
516.32,-527.985,82042
516.258,-530.325,82401
516.195,-532.665,82107
516.133,-535.006,82196
516.071,-537.348,82035
516.008,-539.69,81711
515.946,-542.033,82063
515.884,-544.376,81901
515.821,-546.72,81878
515.759,-549.064,81507
515.696,-551.409,81507
515.634,-553.755,81487
515.572,-556.101,81824
515.509,-558.448,81634
515.447,-560.795,81834
515.385,-563.143,81689
515.322,-565.491,81251
515.26,-567.84,81145
515.198,-570.189,81402
515.135,-572.539,81193
515.073,-574.89,81439
515.01,-577.241,81014
514.948,-579.593,81338
514.886,-581.945,81146
514.823,-584.298,81129
514.761,-586.652,80982
514.699,-589.006,81268
514.636,-591.361,80920
514.574,-593.716,80852
514.511,-596.072,80938
514.449,-598.428,80881
514.387,-600.785,80764
514.324,-603.142,80294
514.262,-605.5,80682
514.2,-607.859,80593
514.137,-610.218,80497
514.075,-612.578,80286
514.012,-614.938,80197
513.95,-617.299,79989
513.888,-619.661,80258
513.825,-622.023,80179
513.763,-624.385,79952
513.701,-626.749,80022
513.638,-629.112,79895
513.576,-631.477,79771
513.514,-633.842,79609
513.451,-636.207,79485
513.389,-638.573,79495
513.326,-640.94,79473
513.264,-643.307,79476
513.202,-645.675,79782
513.139,-648.043,79286
513.077,-650.412,79304
513.015,-652.782,78977
512.952,-655.152,79386
512.89,-657.523,79140
512.827,-659.894,78974
512.765,-662.266,78769
512.703,-664.638,78859
512.64,-667.011,79029
512.578,-669.385,78816
512.516,-671.759,78743
512.453,-674.134,78450
512.391,-676.509,78532
512.328,-678.885,78300
512.266,-681.261,77893
512.204,-683.638,78310
512.141,-686.016,78061
512.079,-688.394,78217
512.017,-690.773,78018
511.954,-693.152,77912
511.892,-695.532,78062
511.83,-697.913,77968
511.767,-700.294,78031
511.705,-702.676,77812
511.642,-705.058,77460
511.58,-707.441,77450
511.518,-709.824,77581
511.455,-712.208,77198
511.393,-714.593,77234
511.331,-716.978,77221
511.268,-719.364,77110
511.206,-721.75,77099
511.143,-724.137,76893
511.081,-726.525,76904
511.019,-728.913,76873
510.956,-731.301,76575
510.894,-733.691,76540
510.832,-736.08,76825
510.769,-738.471,76535
510.707,-740.862,76601
510.644,-743.253,76383
510.582,-745.646,76179
510.52,-748.038,76472
510.457,-750.432,76266
510.395,-752.826,75917
510.333,-755.22,76044
510.27,-757.615,75861
510.208,-760.011,75863
510.146,-762.407,75903
510.083,-764.804,75703
510.021,-767.201,75712
509.958,-769.599,75654
509.896,-771.998,75759
509.834,-774.397,75501
509.771,-776.797,75084
509.709,-779.197,75174
509.647,-781.598,75119
509.584,-784,75125
509.522,-786.402,75003
509.459,-788.805,74907
509.397,-791.208,74894
509.335,-793.612,74667
509.272,-796.016,75163
509.21,-798.421,74651
509.148,-800.827,74604
509.085,-803.233,74417
509.023,-805.64,74248
508.96,-808.048,74442
508.898,-810.456,74439
508.836,-812.864,74359
508.773,-815.274,74252
508.711,-817.683,74270
525.364,-194.586,68630
525.301,-196.846,68836
525.239,-199.106,68982
525.177,-201.367,68940
525.114,-203.629,68896
525.052,-205.891,69008
524.99,-208.154,69074
524.927,-210.417,69130
524.865,-212.681,69129
524.802,-214.945,69329
524.74,-217.21,69074
524.678,-219.475,69194
524.615,-221.741,69177
524.553,-224.008,69338
524.491,-226.275,69185
524.428,-228.542,69224
524.366,-230.81,69548
524.304,-233.079,69608
524.241,-235.348,69161
524.179,-237.618,69430
524.116,-239.888,69404
524.054,-242.159,69445
523.992,-244.43,69583
523.929,-246.702,69661
523.867,-248.974,69863
523.805,-251.247,70037
523.742,-253.52,70117
523.68,-255.794,70387
523.617,-258.069,70828
523.555,-260.344,71151
523.493,-262.62,71937
523.43,-264.896,72983
523.368,-267.173,74687
523.306,-269.45,76740
523.243,-271.728,79658
523.181,-274.006,82231
523.119,-276.285,84994
523.056,-278.564,87848
522.994,-280.844,90242
522.931,-283.125,92412
522.869,-285.406,93504
522.807,-287.688,94251
522.744,-289.97,95327
522.682,-292.252,95553
522.62,-294.536,95846
522.557,-296.82,95989
522.495,-299.104,95622
522.432,-301.389,96038
522.37,-303.674,96131
522.308,-305.96,96266
522.245,-308.247,95694
522.183,-310.534,95702
522.121,-312.821,95737
522.058,-315.11,95992
521.996,-317.398,95769
521.933,-319.687,95478
521.871,-321.977,95383
521.809,-324.268,94918
521.746,-326.559,95249
521.684,-328.85,95138
521.622,-331.142,94679
521.559,-333.434,95016
521.497,-335.728,94536
521.435,-338.021,94265
521.372,-340.315,94832
521.31,-342.61,94577
521.247,-344.905,94513
521.185,-347.201,94319
521.123,-349.498,93963
521.06,-351.795,93850
520.998,-354.092,93614
520.936,-356.39,93733
520.873,-358.689,93395
520.811,-360.988,93124
520.748,-363.287,93070
520.686,-365.588,92787
520.624,-367.889,92463
520.561,-370.19,92698
520.499,-372.492,92196
520.437,-374.794,92101
520.374,-377.097,92145
520.312,-379.401,91849
520.249,-381.705,91474
520.187,-384.009,91030
520.125,-386.315,91480
520.062,-388.62,91489
520.0,-390.927,91369
519.938,-393.234,91264
519.875,-395.541,91226
519.813,-397.849,91117
519.751,-400.158,90702
519.688,-402.467,90931
519.626,-404.776,90667
519.563,-407.086,90787
519.501,-409.397,90365
519.439,-411.708,90576
519.376,-414.02,90531
519.314,-416.333,90186
519.252,-418.646,89974
519.189,-420.959,89316
519.127,-423.273,89519
519.064,-425.588,89118
519.002,-427.903,88884
518.94,-430.219,88290
518.877,-432.535,88422
518.815,-434.852,88219
518.753,-437.169,88294
518.69,-439.487,87875
518.628,-441.806,88070
518.565,-444.125,87709
518.503,-446.445,87435
518.441,-448.765,87777
518.378,-451.086,87339
518.316,-453.407,87210
518.254,-455.729,87191
518.191,-458.051,87589
518.129,-460.374,86902
518.067,-462.698,86942
518.004,-465.022,86662
517.942,-467.347,86511
517.879,-469.672,86904
517.817,-471.998,86886
517.755,-474.324,86416
517.692,-476.651,86023
517.63,-478.978,85913
517.568,-481.306,85882
517.505,-483.635,85776
517.443,-485.964,85773
517.38,-488.294,85574
517.318,-490.624,85745
517.256,-492.955,85872
517.193,-495.286,85231
517.131,-497.618,85227
517.069,-499.951,85409
517.006,-502.284,85472
516.944,-504.618,85562
516.881,-506.952,85212
516.819,-509.287,85246
516.757,-511.622,85339
516.694,-513.958,85043
516.632,-516.294,84868
516.57,-518.631,85101
516.507,-520.969,84993
516.445,-523.307,84703
516.383,-525.646,84739
516.32,-527.985,84934
516.258,-530.325,84694
516.195,-532.665,84962
516.133,-535.006,84873
516.071,-537.348,84840
516.008,-539.69,84473
515.946,-542.033,84787
515.884,-544.376,84586
515.821,-546.72,84706
515.759,-549.064,84612
515.696,-551.409,84612
515.634,-553.755,84408
515.572,-556.101,84137
515.509,-558.448,84563
515.447,-560.795,84038
515.385,-563.143,84151
515.322,-565.491,84376
515.26,-567.84,84290
515.198,-570.189,83863
515.135,-572.539,83941
515.073,-574.89,83624
515.01,-577.241,83949
514.948,-579.593,83788
514.886,-581.945,83834
514.823,-584.298,83638
514.761,-586.652,83892
514.699,-589.006,83777
514.636,-591.361,83514
514.574,-593.716,83380
514.511,-596.072,83249
514.449,-598.428,83431
514.387,-600.785,83496
514.324,-603.142,83306
514.262,-605.5,83227
514.2,-607.859,83176
514.137,-610.218,83056
514.075,-612.578,83015
514.012,-614.938,82897
513.95,-617.299,82657
513.888,-619.661,82671
513.825,-622.023,82350
513.763,-624.385,82577
513.701,-626.749,82286
513.638,-629.112,81916
513.576,-631.477,82104
513.514,-633.842,82111
513.451,-636.207,82382
513.389,-638.573,81737
513.326,-640.94,81840
513.264,-643.307,82048
513.202,-645.675,82118
513.139,-648.043,81276
513.077,-650.412,82065
513.015,-652.782,81822
512.952,-655.152,81591
512.89,-657.523,81383
512.827,-659.894,81361
512.765,-662.266,81063
512.703,-664.638,81216
512.64,-667.011,80901
512.578,-669.385,80883
512.516,-671.759,81066
512.453,-674.134,80774
512.391,-676.509,81084
512.328,-678.885,80594
512.266,-681.261,80875
512.204,-683.638,80533
512.141,-686.016,80231
512.079,-688.394,80067
512.017,-690.773,80181
511.954,-693.152,80165
511.892,-695.532,80054
511.83,-697.913,79794
511.767,-700.294,80080
511.705,-702.676,79714
511.642,-705.058,79891
511.58,-707.441,79605
511.518,-709.824,79575
511.455,-712.208,79642
511.393,-714.593,79279
511.331,-716.978,79356
511.268,-719.364,79246
511.206,-721.75,79107
511.143,-724.137,78860
511.081,-726.525,79154
511.019,-728.913,78821
510.956,-731.301,78625
510.894,-733.691,78550
510.832,-736.08,78795
510.769,-738.471,78903
510.707,-740.862,78609
510.644,-743.253,78689
510.582,-745.646,78519
510.52,-748.038,78635
510.457,-750.432,78312
510.395,-752.826,78273
510.333,-755.22,78211
510.27,-757.615,77883
510.208,-760.011,77788
510.146,-762.407,77886
510.083,-764.804,77884
510.021,-767.201,77485
509.958,-769.599,77483
509.896,-771.998,77574
509.834,-774.397,77376
509.771,-776.797,77091
509.709,-779.197,77053
509.647,-781.598,77173
509.584,-784,76730
509.522,-786.402,77110
509.459,-788.805,76957
509.397,-791.208,76916
509.335,-793.612,76807
509.272,-796.016,76689
509.21,-798.421,76535
509.148,-800.827,76575
509.085,-803.233,76384
509.023,-805.64,76222
508.96,-808.048,76237
508.898,-810.456,76509
508.836,-812.864,76069
508.773,-815.274,76535
508.711,-817.683,76178
525.364,-194.586,68810
525.301,-196.846,69231
525.239,-199.106,69261
525.177,-201.367,69402
525.114,-203.629,69099
525.052,-205.891,69218
524.99,-208.154,69393
524.927,-210.417,69218
524.865,-212.681,69323
524.802,-214.945,69533
524.74,-217.21,69442
524.678,-219.475,69599
524.615,-221.741,69438
524.553,-224.008,69763
524.491,-226.275,69668
524.428,-228.542,69602
524.366,-230.81,69873
524.304,-233.079,69830
524.241,-235.348,69801
524.179,-237.618,69830
524.116,-239.888,69873
524.054,-242.159,69931
523.992,-244.43,69943
523.929,-246.702,69885
523.867,-248.974,70026
523.805,-251.247,70347
523.742,-253.52,70247
523.68,-255.794,70677
523.617,-258.069,71068
523.555,-260.344,71549
523.493,-262.62,72408
523.43,-264.896,73514
523.368,-267.173,75389
523.306,-269.45,77687
523.243,-271.728,80598
523.181,-274.006,83458
523.119,-276.285,86352
523.056,-278.564,89184
522.994,-280.844,91346
522.931,-283.125,93089
522.869,-285.406,94694
522.807,-287.688,95928
522.744,-289.97,96777
522.682,-292.252,97118
522.62,-294.536,97109
522.557,-296.82,97401
522.495,-299.104,97341
522.432,-301.389,97469
522.37,-303.674,97403
522.308,-305.96,97598
522.245,-308.247,98033
522.183,-310.534,97686
522.121,-312.821,97341
522.058,-315.11,97074
521.996,-317.398,97262
521.933,-319.687,96504
521.871,-321.977,96953
521.809,-324.268,96751
521.746,-326.559,96487
521.684,-328.85,96697
521.622,-331.142,96607
521.559,-333.434,95991
521.497,-335.728,96068
521.435,-338.021,95856
521.372,-340.315,96309
521.31,-342.61,96204
521.247,-344.905,95727
521.185,-347.201,95514
521.123,-349.498,95507
521.06,-351.795,95035
520.998,-354.092,95029
520.936,-356.39,94827
520.873,-358.689,94723
520.811,-360.988,94722
520.748,-363.287,94541
520.686,-365.588,94897
520.624,-367.889,93760
520.561,-370.19,93754
520.499,-372.492,93520
520.437,-374.794,93725
520.374,-377.097,93468
520.312,-379.401,93264
520.249,-381.705,93197
520.187,-384.009,93182
520.125,-386.315,93001
520.062,-388.62,92787
520.0,-390.927,92767
519.938,-393.234,92751
519.875,-395.541,92679
519.813,-397.849,93018
519.751,-400.158,92404
519.688,-402.467,92364
519.626,-404.776,92319
519.563,-407.086,92276
519.501,-409.397,92107
519.439,-411.708,91975
519.376,-414.02,91232
519.314,-416.333,91404
519.252,-418.646,90946
519.189,-420.959,91078
519.127,-423.273,91134
519.064,-425.588,90768
519.002,-427.903,90405
518.94,-430.219,90256
518.877,-432.535,89780
518.815,-434.852,89452
518.753,-437.169,89567
518.69,-439.487,89005
518.628,-441.806,89051
518.565,-444.125,89421
518.503,-446.445,88991
518.441,-448.765,88991
518.378,-451.086,88822
518.316,-453.407,88492
518.254,-455.729,88378
518.191,-458.051,88626
518.129,-460.374,87750
518.067,-462.698,88129
518.004,-465.022,88310
517.942,-467.347,87840
517.879,-469.672,87492
517.817,-471.998,87723
517.755,-474.324,87705
517.692,-476.651,87489
517.63,-478.978,87517
517.568,-481.306,86942
517.505,-483.635,87185
517.443,-485.964,86829
517.38,-488.294,86933
517.318,-490.624,86831
517.256,-492.955,86916
517.193,-495.286,86610
517.131,-497.618,86414
517.069,-499.951,86595
517.006,-502.284,86551
516.944,-504.618,86614
516.881,-506.952,86783
516.819,-509.287,86493
516.757,-511.622,86354
516.694,-513.958,86025
516.632,-516.294,86701
516.57,-518.631,86307
516.507,-520.969,86168
516.445,-523.307,86359
516.383,-525.646,86183
516.32,-527.985,85877
516.258,-530.325,86154
516.195,-532.665,86007
516.133,-535.006,86028
516.071,-537.348,85897
516.008,-539.69,85735
515.946,-542.033,85779
515.884,-544.376,85567
515.821,-546.72,85949
515.759,-549.064,85742
515.696,-551.409,85610
515.634,-553.755,85621
515.572,-556.101,85637
515.509,-558.448,85656
515.447,-560.795,85616
515.385,-563.143,85445
515.322,-565.491,85085
515.26,-567.84,85236
515.198,-570.189,85108
515.135,-572.539,85001
515.073,-574.89,85409
515.01,-577.241,85014
514.948,-579.593,84910
514.886,-581.945,84900
514.823,-584.298,84801
514.761,-586.652,84846
514.699,-589.006,84860
514.636,-591.361,84511
514.574,-593.716,84390
514.511,-596.072,84736
514.449,-598.428,84775
514.387,-600.785,84446
514.324,-603.142,84539
514.262,-605.5,83946
514.2,-607.859,83951
514.137,-610.218,84185
514.075,-612.578,83837
514.012,-614.938,84082
513.95,-617.299,83931
513.888,-619.661,83740
513.825,-622.023,83894
513.763,-624.385,83187
513.701,-626.749,83566
513.638,-629.112,83187
513.576,-631.477,83201
513.514,-633.842,83144
513.451,-636.207,83122
513.389,-638.573,83347
513.326,-640.94,83126
513.264,-643.307,82677
513.202,-645.675,83151
513.139,-648.043,82722
513.077,-650.412,82768
513.015,-652.782,82704
512.952,-655.152,82364
512.89,-657.523,82614
512.827,-659.894,82677
512.765,-662.266,82315
512.703,-664.638,82437
512.64,-667.011,81977
512.578,-669.385,82105
512.516,-671.759,81936
512.453,-674.134,82085
512.391,-676.509,81483
512.328,-678.885,81959
512.266,-681.261,81310
512.204,-683.638,81211
512.141,-686.016,81620
512.079,-688.394,81411
512.017,-690.773,81488
511.954,-693.152,81199
511.892,-695.532,81105
511.83,-697.913,81187
511.767,-700.294,80669
511.705,-702.676,80751
511.642,-705.058,80590
511.58,-707.441,80431
511.518,-709.824,80843
511.455,-712.208,80404
511.393,-714.593,80340
511.331,-716.978,80090
511.268,-719.364,80019
511.206,-721.75,80044
511.143,-724.137,80095
511.081,-726.525,79567
511.019,-728.913,79845
510.956,-731.301,79756
510.894,-733.691,79731
510.832,-736.08,80024
510.769,-738.471,79289
510.707,-740.862,79482
510.644,-743.253,79432
510.582,-745.646,79310
510.52,-748.038,79266
510.457,-750.432,79395
510.395,-752.826,78802
510.333,-755.22,78935
510.27,-757.615,78682
510.208,-760.011,78676
510.146,-762.407,78464
510.083,-764.804,78505
510.021,-767.201,78055
509.958,-769.599,78369
509.896,-771.998,77978
509.834,-774.397,78066
509.771,-776.797,78116
509.709,-779.197,77932
509.647,-781.598,77551
509.584,-784,77801
509.522,-786.402,77484
509.459,-788.805,77852
509.397,-791.208,77664
509.335,-793.612,77276
509.272,-796.016,77453
509.21,-798.421,77396
509.148,-800.827,77297
509.085,-803.233,76976
509.023,-805.64,77010
508.96,-808.048,76874
508.898,-810.456,77109
508.836,-812.864,76779
508.773,-815.274,76747
508.711,-817.683,77013
525.364,-194.586,68670
525.301,-196.846,68944
525.239,-199.106,69024
525.177,-201.367,69028
525.114,-203.629,69155
525.052,-205.891,69428
524.99,-208.154,69238
524.927,-210.417,69335
524.865,-212.681,69314
524.802,-214.945,69449
524.74,-217.21,69427
524.678,-219.475,69517
524.615,-221.741,69344
524.553,-224.008,69507
524.491,-226.275,69390
524.428,-228.542,69503
524.366,-230.81,69515
524.304,-233.079,69500
524.241,-235.348,69779
524.179,-237.618,69448
524.116,-239.888,69365
524.054,-242.159,69531
523.992,-244.43,69937
523.929,-246.702,69805
523.867,-248.974,69858
523.805,-251.247,69996
523.742,-253.52,70203
523.68,-255.794,70517
523.617,-258.069,70763
523.555,-260.344,71591
523.493,-262.62,72271
523.43,-264.896,73461
523.368,-267.173,75158
523.306,-269.45,77355
523.243,-271.728,80016
523.181,-274.006,82821
523.119,-276.285,85928
523.056,-278.564,88591
522.994,-280.844,90557
522.931,-283.125,92974
522.869,-285.406,94097
522.807,-287.688,95128
522.744,-289.97,96028
522.682,-292.252,96499
522.62,-294.536,96386
522.557,-296.82,96580
522.495,-299.104,96464
522.432,-301.389,96406
522.37,-303.674,96779
522.308,-305.96,96790
522.245,-308.247,96867
522.183,-310.534,96633
522.121,-312.821,96374
522.058,-315.11,96492
521.996,-317.398,96423
521.933,-319.687,96285
521.871,-321.977,95890
521.809,-324.268,95704
521.746,-326.559,95549
521.684,-328.85,95894
521.622,-331.142,95643
521.559,-333.434,95193
521.497,-335.728,95447
521.435,-338.021,95545
521.372,-340.315,95051
521.31,-342.61,94961
521.247,-344.905,95052
521.185,-347.201,95024
521.123,-349.498,94383
521.06,-351.795,94465
520.998,-354.092,94451
520.936,-356.39,94476
520.873,-358.689,94138
520.811,-360.988,93893
520.748,-363.287,93670
520.686,-365.588,93398
520.624,-367.889,93376
520.561,-370.19,93346
520.499,-372.492,93004
520.437,-374.794,93073
520.374,-377.097,92850
520.312,-379.401,92897
520.249,-381.705,92701
520.187,-384.009,92463
520.125,-386.315,92365
520.062,-388.62,92082
520.0,-390.927,92427
519.938,-393.234,91634
519.875,-395.541,91797
519.813,-397.849,91625
519.751,-400.158,91858
519.688,-402.467,91600
519.626,-404.776,91150
519.563,-407.086,91327
519.501,-409.397,91272
519.439,-411.708,91119
519.376,-414.02,90482
519.314,-416.333,90524
519.252,-418.646,90334
519.189,-420.959,90219
519.127,-423.273,90170
519.064,-425.588,89499
519.002,-427.903,89684
518.94,-430.219,89424
518.877,-432.535,89192
518.815,-434.852,89183
518.753,-437.169,89307
518.69,-439.487,88709
518.628,-441.806,88653
518.565,-444.125,88691
518.503,-446.445,88293
518.441,-448.765,88061
518.378,-451.086,88486
518.316,-453.407,87978
518.254,-455.729,87833
518.191,-458.051,88084
518.129,-460.374,87469
518.067,-462.698,87780
518.004,-465.022,86998
517.942,-467.347,87314
517.879,-469.672,87482
517.817,-471.998,86932
517.755,-474.324,86992
517.692,-476.651,86935
517.63,-478.978,86485
517.568,-481.306,86787
517.505,-483.635,86658
517.443,-485.964,86757
517.38,-488.294,86453
517.318,-490.624,86326
517.256,-492.955,86423
517.193,-495.286,85886
517.131,-497.618,85843
517.069,-499.951,86340
517.006,-502.284,86054
516.944,-504.618,86314
516.881,-506.952,85867
516.819,-509.287,85956
516.757,-511.622,85842
516.694,-513.958,85980
516.632,-516.294,85848
516.57,-518.631,85715
516.507,-520.969,85720
516.445,-523.307,85381
516.383,-525.646,85763
516.32,-527.985,85376
516.258,-530.325,85208
516.195,-532.665,85517
516.133,-535.006,85336
516.071,-537.348,85493
516.008,-539.69,85298
515.946,-542.033,85480
515.884,-544.376,85082
515.821,-546.72,85407
515.759,-549.064,85274
515.696,-551.409,85119
515.634,-553.755,84652
515.572,-556.101,84782
515.509,-558.448,85031
515.447,-560.795,84870
515.385,-563.143,84441
515.322,-565.491,84614
515.26,-567.84,84676
515.198,-570.189,84490
515.135,-572.539,84190
515.073,-574.89,84420
515.01,-577.241,84430
514.948,-579.593,84373
514.886,-581.945,84442
514.823,-584.298,84047
514.761,-586.652,84365
514.699,-589.006,84409
514.636,-591.361,83785
514.574,-593.716,83732
514.511,-596.072,84092
514.449,-598.428,83839
514.387,-600.785,83884
514.324,-603.142,83890
514.262,-605.5,83990
514.2,-607.859,83814
514.137,-610.218,83490
514.075,-612.578,83647
514.012,-614.938,83360
513.95,-617.299,83388
513.888,-619.661,83089
513.825,-622.023,83176
513.763,-624.385,82988
513.701,-626.749,83112
513.638,-629.112,82807
513.576,-631.477,82753
513.514,-633.842,82802
513.451,-636.207,82786
513.389,-638.573,82236
513.326,-640.94,82662
513.264,-643.307,82906
513.202,-645.675,82209
513.139,-648.043,82441
513.077,-650.412,82494
513.015,-652.782,81946
512.952,-655.152,82000
512.89,-657.523,82056
512.827,-659.894,81812
512.765,-662.266,81902
512.703,-664.638,81690
512.64,-667.011,81803
512.578,-669.385,81656
512.516,-671.759,81241
512.453,-674.134,81673
512.391,-676.509,81333
512.328,-678.885,81000
512.266,-681.261,81240
512.204,-683.638,80887
512.141,-686.016,81125
512.079,-688.394,80605
512.017,-690.773,80895
511.954,-693.152,80659
511.892,-695.532,80807
511.83,-697.913,80350
511.767,-700.294,80630
511.705,-702.676,80425
511.642,-705.058,80267
511.58,-707.441,80099
511.518,-709.824,80019
511.455,-712.208,79986
511.393,-714.593,79830
511.331,-716.978,79790
511.268,-719.364,79741
511.206,-721.75,79763
511.143,-724.137,79586
511.081,-726.525,79615
511.019,-728.913,79245
510.956,-731.301,79494
510.894,-733.691,78963
510.832,-736.08,79578
510.769,-738.471,78774
510.707,-740.862,79170
510.644,-743.253,78972
510.582,-745.646,79038
510.52,-748.038,78636
510.457,-750.432,78898
510.395,-752.826,78620
510.333,-755.22,78320
510.27,-757.615,78372
510.208,-760.011,78152
510.146,-762.407,78462
510.083,-764.804,78373
510.021,-767.201,78119
509.958,-769.599,77762
509.896,-771.998,77935
509.834,-774.397,77688
509.771,-776.797,77541
509.709,-779.197,77582
509.647,-781.598,77483
509.584,-784,77393
509.522,-786.402,77313
509.459,-788.805,77357
509.397,-791.208,77049
509.335,-793.612,77162
509.272,-796.016,76862
509.21,-798.421,76801
509.148,-800.827,77178
509.085,-803.233,76525
509.023,-805.64,76613
508.96,-808.048,76450
508.898,-810.456,76846
508.836,-812.864,76514
508.773,-815.274,76476
508.711,-817.683,76293
508.661,-819.612,76095