File: tomke/20240809_Si_on_TiO2/20240809/raw_data/Si_onTiO2_100mA_30mW_30sec_5acc_517nm.txt
Wavelength(nm), Raman shift(cm^-1), Intensity(counts)
525.364,-194.586,79571
525.301,-196.846,80170
525.239,-199.106,80153
525.177,-201.367,80132
525.114,-203.629,80362
525.052,-205.891,80349
524.99,-208.154,80276
524.927,-210.417,80578
524.865,-212.681,80567
524.802,-214.945,80850
524.74,-217.21,93591
524.678,-219.475,81053
524.615,-221.741,81037
524.553,-224.008,81317
524.491,-226.275,81160
524.428,-228.542,81303
524.366,-230.81,81555
524.304,-233.079,81645
524.241,-235.348,81318
524.179,-237.618,81690
524.116,-239.888,81744
524.054,-242.159,82213
523.992,-244.43,81941
523.929,-246.702,82011
523.867,-248.974,82690
523.805,-251.247,82927
523.742,-253.52,83374
523.68,-255.794,84069
523.617,-258.069,85159
523.555,-260.344,86759
523.493,-262.62,89163
523.43,-264.896,92990
523.368,-267.173,97811
523.306,-269.45,103992
523.243,-271.728,112549
523.181,-274.006,120917
523.119,-276.285,130467
523.056,-278.564,139678
522.994,-280.844,147799
522.931,-283.125,152857
522.869,-285.406,157844
522.807,-287.688,161107
522.744,-289.97,163730
522.682,-292.252,165360
522.62,-294.536,165767
522.557,-296.82,166569
522.495,-299.104,166430
522.432,-301.389,166111
522.37,-303.674,165891
522.308,-305.96,166495
522.245,-308.247,166216
522.183,-310.534,165751
522.121,-312.821,166136
522.058,-315.11,166569
521.996,-317.398,164781
521.933,-319.687,164048
521.871,-321.977,164221
521.809,-324.268,163884
521.746,-326.559,163612
521.684,-328.85,163050
521.622,-331.142,162486
521.559,-333.434,162810
521.497,-335.728,162706
521.435,-338.021,161832
521.372,-340.315,161776
521.31,-342.61,161824
521.247,-344.905,161671
521.185,-347.201,161593
521.123,-349.498,160974
521.06,-351.795,160559
520.998,-354.092,160299
520.936,-356.39,159434
520.873,-358.689,159244
520.811,-360.988,158564
520.748,-363.287,157940
520.686,-365.588,157518
520.624,-367.889,156987
520.561,-370.19,157227
520.499,-372.492,156051
520.437,-374.794,155973
520.374,-377.097,154926
520.312,-379.401,155365
520.249,-381.705,154646
520.187,-384.009,154655
520.125,-386.315,154735
520.062,-388.62,154873
520.0,-390.927,155182
519.938,-393.234,153477
519.875,-395.541,152946
519.813,-397.849,153379
519.751,-400.158,152645
519.688,-402.467,152534
519.626,-404.776,152508
519.563,-407.086,152729
519.501,-409.397,151983
519.439,-411.708,150901
519.376,-414.02,150892
519.314,-416.333,150287
519.252,-418.646,149776
519.189,-420.959,148468
519.127,-423.273,148291
519.064,-425.588,148324
519.002,-427.903,148004
518.94,-430.219,146622
518.877,-432.535,145848
518.815,-434.852,145966
518.753,-437.169,145584
518.69,-439.487,145262
518.628,-441.806,145169
518.565,-444.125,144231
518.503,-446.445,144102
518.441,-448.765,144090
518.378,-451.086,143803
518.316,-453.407,143434
518.254,-455.729,143059
518.191,-458.051,143328
518.129,-460.374,142911
518.067,-462.698,142632
518.004,-465.022,142132
517.942,-467.347,142523
517.879,-469.672,142519
517.817,-471.998,142461
517.755,-474.324,141953
517.692,-476.651,141362
517.63,-478.978,141740
517.568,-481.306,141490
517.505,-483.635,141647
517.443,-485.964,141437
517.38,-488.294,141991
517.318,-490.624,143392
517.256,-492.955,144510
517.193,-495.286,145497
517.131,-497.618,146956
517.069,-499.951,148002
517.006,-502.284,146283
516.944,-504.618,144285
516.881,-506.952,142138
516.819,-509.287,140507
516.757,-511.622,139910
516.694,-513.958,139515
516.632,-516.294,138962
516.57,-518.631,138758
516.507,-520.969,137835
516.445,-523.307,137083
516.383,-525.646,137483
516.32,-527.985,137110
516.258,-530.325,136311
516.195,-532.665,137495
516.133,-535.006,136686
516.071,-537.348,136940
516.008,-539.69,136232
515.946,-542.033,136283
515.884,-544.376,135869
515.821,-546.72,135702
515.759,-549.064,136016
515.696,-551.409,135102
515.634,-553.755,134809
515.572,-556.101,135470
515.509,-558.448,134404
515.447,-560.795,134199
515.385,-563.143,134053
515.322,-565.491,134290
515.26,-567.84,134396
515.198,-570.189,133785
515.135,-572.539,133306
515.073,-574.89,134036
515.01,-577.241,133790
514.948,-579.593,132937
514.886,-581.945,133408
514.823,-584.298,133012
514.761,-586.652,132986
514.699,-589.006,132517
514.636,-591.361,133158
514.574,-593.716,132395
514.511,-596.072,132706
514.449,-598.428,132144
514.387,-600.785,131970
514.324,-603.142,131659
514.262,-605.5,132314
514.2,-607.859,130978
514.137,-610.218,131166
514.075,-612.578,131431
514.012,-614.938,130461
513.95,-617.299,130159
513.888,-619.661,129318
513.825,-622.023,130060
513.763,-624.385,129592
513.701,-626.749,129269
513.638,-629.112,129140
513.576,-631.477,128583
513.514,-633.842,128711
513.451,-636.207,127277
513.389,-638.573,127866
513.326,-640.94,127932
513.264,-643.307,127764
513.202,-645.675,126758
513.139,-648.043,126886
513.077,-650.412,126762
513.015,-652.782,126703
512.952,-655.152,125916
512.89,-657.523,126162
512.827,-659.894,125646
512.765,-662.266,125974
512.703,-664.638,125452
512.64,-667.011,125382
512.578,-669.385,125196
512.516,-671.759,124967
512.453,-674.134,124485
512.391,-676.509,124162
512.328,-678.885,124001
512.266,-681.261,123790
512.204,-683.638,123642
512.141,-686.016,123285
512.079,-688.394,123039
512.017,-690.773,122005
511.954,-693.152,122348
511.892,-695.532,122049
511.83,-697.913,121158
511.767,-700.294,121091
511.705,-702.676,121143
511.642,-705.058,120809
511.58,-707.441,121125
511.518,-709.824,120240
511.455,-712.208,120003
511.393,-714.593,119691
511.331,-716.978,119527
511.268,-719.364,119759
511.206,-721.75,119168
511.143,-724.137,118708
511.081,-726.525,118291
511.019,-728.913,118253
510.956,-731.301,118653
510.894,-733.691,118001
510.832,-736.08,117847
510.769,-738.471,117663
510.707,-740.862,117045
510.644,-743.253,116916
510.582,-745.646,117148
510.52,-748.038,116635
510.457,-750.432,116631
510.395,-752.826,116035
510.333,-755.22,116023
510.27,-757.615,115636
510.208,-760.011,114595
510.146,-762.407,114717
510.083,-764.804,114958
510.021,-767.201,114828
509.958,-769.599,113784
509.896,-771.998,113615
509.834,-774.397,113526
509.771,-776.797,112805
509.709,-779.197,112788
509.647,-781.598,112292
509.584,-784,112183
509.522,-786.402,112027
509.459,-788.805,111887
509.397,-791.208,111617
509.335,-793.612,111498
509.272,-796.016,110897
509.21,-798.421,110745
509.148,-800.827,110288
509.085,-803.233,110471
509.023,-805.64,110406
508.96,-808.048,110250
508.898,-810.456,109929
508.836,-812.864,109554
508.773,-815.274,109525
508.711,-817.683,108919
525.364,-194.586,80195
525.301,-196.846,80671
525.239,-199.106,80801
525.177,-201.367,80820
525.114,-203.629,80876
525.052,-205.891,80807
524.99,-208.154,81247
524.927,-210.417,81202
524.865,-212.681,81322
524.802,-214.945,81185
524.74,-217.21,81444
524.678,-219.475,81851
524.615,-221.741,81610
524.553,-224.008,81906
524.491,-226.275,82044
524.428,-228.542,82317
524.366,-230.81,82263
524.304,-233.079,82443
524.241,-235.348,82500
524.179,-237.618,82068
524.116,-239.888,82313
524.054,-242.159,82169
523.992,-244.43,82280
523.929,-246.702,82813
523.867,-248.974,82990
523.805,-251.247,83646
523.742,-253.52,84227
523.68,-255.794,84966
523.617,-258.069,86053
523.555,-260.344,87653
523.493,-262.62,89897
523.43,-264.896,93631
523.368,-267.173,99275
523.306,-269.45,105545
523.243,-271.728,114801
523.181,-274.006,124044
523.119,-276.285,133281
523.056,-278.564,142806
522.994,-280.844,151559
522.931,-283.125,156734
522.869,-285.406,162084
522.807,-287.688,165288
522.744,-289.97,168292
522.682,-292.252,170282
522.62,-294.536,170958
522.557,-296.82,171033
522.495,-299.104,171055
522.432,-301.389,170921
522.37,-303.674,171989
522.308,-305.96,171113
522.245,-308.247,170833
522.183,-310.534,170640
522.121,-312.821,170587
522.058,-315.11,170811
521.996,-317.398,169585
521.933,-319.687,169182
521.871,-321.977,168844
521.809,-324.268,168609
521.746,-326.559,168331
521.684,-328.85,168236
521.622,-331.142,167585
521.559,-333.434,167507
521.497,-335.728,167446
521.435,-338.021,166496
521.372,-340.315,166689
521.31,-342.61,165966
521.247,-344.905,166083
521.185,-347.201,165471
521.123,-349.498,165176
521.06,-351.795,165001
520.998,-354.092,164424
520.936,-356.39,163906
520.873,-358.689,163045
520.811,-360.988,163153
520.748,-363.287,162575
520.686,-365.588,161992
520.624,-367.889,162190
520.561,-370.19,161025
520.499,-372.492,160326
520.437,-374.794,159744
520.374,-377.097,159891
520.312,-379.401,159700
520.249,-381.705,159603
520.187,-384.009,159325
520.125,-386.315,158191
520.062,-388.62,158221
520.0,-390.927,157572
519.938,-393.234,158243
519.875,-395.541,157029
519.813,-397.849,157376
519.751,-400.158,157461
519.688,-402.467,156437
519.626,-404.776,156825
519.563,-407.086,156213
519.501,-409.397,155524
519.439,-411.708,155145
519.376,-414.02,155333
519.314,-416.333,155103
519.252,-418.646,153689
519.189,-420.959,153882
519.127,-423.273,153069
519.064,-425.588,151907
519.002,-427.903,151528
518.94,-430.219,151362
518.877,-432.535,149852
518.815,-434.852,149189
518.753,-437.169,149796
518.69,-439.487,149305
518.628,-441.806,148785
518.565,-444.125,148105
518.503,-446.445,148016
518.441,-448.765,147931
518.378,-451.086,147131
518.316,-453.407,147400
518.254,-455.729,147782
518.191,-458.051,147648
518.129,-460.374,146357
518.067,-462.698,146154
518.004,-465.022,146168
517.942,-467.347,146713
517.879,-469.672,146476
517.817,-471.998,145403
517.755,-474.324,146375
517.692,-476.651,145204
517.63,-478.978,145875
517.568,-481.306,145141
517.505,-483.635,144950
517.443,-485.964,145886
517.38,-488.294,146057
517.318,-490.624,147570
517.256,-492.955,148353
517.193,-495.286,149963
517.131,-497.618,151169
517.069,-499.951,151378
517.006,-502.284,150347
516.944,-504.618,148288
516.881,-506.952,146866
516.819,-509.287,144425
516.757,-511.622,142949
516.694,-513.958,142935
516.632,-516.294,141979
516.57,-518.631,142320
516.507,-520.969,141233
516.445,-523.307,141336
516.383,-525.646,140993
516.32,-527.985,140993
516.258,-530.325,140369
516.195,-532.665,140267
516.133,-535.006,140863
516.071,-537.348,139725
516.008,-539.69,139967
515.946,-542.033,139440
515.884,-544.376,139187
515.821,-546.72,139585
515.759,-549.064,139086
515.696,-551.409,138866
515.634,-553.755,138607
515.572,-556.101,138427
515.509,-558.448,138435
515.447,-560.795,138654
515.385,-563.143,137613
515.322,-565.491,137398
515.26,-567.84,137950
515.198,-570.189,136887
515.135,-572.539,137359
515.073,-574.89,137030
515.01,-577.241,137050
514.948,-579.593,136329
514.886,-581.945,136973
514.823,-584.298,136858
514.761,-586.652,136163
514.699,-589.006,135705
514.636,-591.361,136180
514.574,-593.716,136103
514.511,-596.072,135980
514.449,-598.428,135521
514.387,-600.785,135102
514.324,-603.142,134693
514.262,-605.5,134677
514.2,-607.859,134242
514.137,-610.218,134330
514.075,-612.578,134480
514.012,-614.938,133776
513.95,-617.299,133872
513.888,-619.661,133841
513.825,-622.023,133063
513.763,-624.385,133314
513.701,-626.749,132881
513.638,-629.112,132334
513.576,-631.477,131546
513.514,-633.842,131654
513.451,-636.207,131276
513.389,-638.573,130916
513.326,-640.94,130823
513.264,-643.307,130986
513.202,-645.675,130478
513.139,-648.043,130397
513.077,-650.412,129958
513.015,-652.782,130459
512.952,-655.152,129481
512.89,-657.523,129345
512.827,-659.894,129446
512.765,-662.266,129375
512.703,-664.638,128714
512.64,-667.011,128551
512.578,-669.385,128355
512.516,-671.759,128263
512.453,-674.134,127788
512.391,-676.509,127569
512.328,-678.885,127292
512.266,-681.261,126717
512.204,-683.638,126401
512.141,-686.016,125756
512.079,-688.394,125683
512.017,-690.773,125373
511.954,-693.152,125921
511.892,-695.532,124687
511.83,-697.913,125083
511.767,-700.294,124066
511.705,-702.676,124081
511.642,-705.058,122779
511.58,-707.441,123233
511.518,-709.824,123800
511.455,-712.208,123010
511.393,-714.593,123005
511.331,-716.978,122978
511.268,-719.364,122293
511.206,-721.75,121779
511.143,-724.137,121919
511.081,-726.525,121551
511.019,-728.913,121191
510.956,-731.301,121318
510.894,-733.691,120701
510.832,-736.08,120953
510.769,-738.471,120707
510.707,-740.862,120160
510.644,-743.253,119798
510.582,-745.646,120106
510.52,-748.038,119290
510.457,-750.432,119542
510.395,-752.826,118774
510.333,-755.22,118545
510.27,-757.615,117847
510.208,-760.011,117544
510.146,-762.407,117486
510.083,-764.804,117003
510.021,-767.201,117200
509.958,-769.599,116941
509.896,-771.998,116240
509.834,-774.397,115981
509.771,-776.797,115210
509.709,-779.197,115508
509.647,-781.598,115114
509.584,-784,115471
509.522,-786.402,114494
509.459,-788.805,114206
509.397,-791.208,113990
509.335,-793.612,113766
509.272,-796.016,113785
509.21,-798.421,113287
509.148,-800.827,113201
509.085,-803.233,112663
509.023,-805.64,113051
508.96,-808.048,112640
508.898,-810.456,111988
508.836,-812.864,111916
508.773,-815.274,111981
508.711,-817.683,111955
525.364,-194.586,80019
525.301,-196.846,81093
525.239,-199.106,80794
525.177,-201.367,80820
525.114,-203.629,81043
525.052,-205.891,81288
524.99,-208.154,81350
524.927,-210.417,81699
524.865,-212.681,81396
524.802,-214.945,81412
524.74,-217.21,81726
524.678,-219.475,81578
524.615,-221.741,81752
524.553,-224.008,81735
524.491,-226.275,82055
524.428,-228.542,82423
524.366,-230.81,82360
524.304,-233.079,82332
524.241,-235.348,81925
524.179,-237.618,82453
524.116,-239.888,82406
524.054,-242.159,82694
523.992,-244.43,82771
523.929,-246.702,82926
523.867,-248.974,83236
523.805,-251.247,83650
523.742,-253.52,83999
523.68,-255.794,85115
523.617,-258.069,86048
523.555,-260.344,88174
523.493,-262.62,90853
523.43,-264.896,94515
523.368,-267.173,99244
523.306,-269.45,106386
523.243,-271.728,114418
523.181,-274.006,125003
523.119,-276.285,134446
523.056,-278.564,143351
522.994,-280.844,151992
522.931,-283.125,158269
522.869,-285.406,163132
522.807,-287.688,166729
522.744,-289.97,169363
522.682,-292.252,170180
522.62,-294.536,171339
522.557,-296.82,171812
522.495,-299.104,172350
522.432,-301.389,172747
522.37,-303.674,172025
522.308,-305.96,172339
522.245,-308.247,172457
522.183,-310.534,171648
522.121,-312.821,171648
522.058,-315.11,172023
521.996,-317.398,171140
521.933,-319.687,170713
521.871,-321.977,169990
521.809,-324.268,169975
521.746,-326.559,169002
521.684,-328.85,167974
521.622,-331.142,168102
521.559,-333.434,168163
521.497,-335.728,168636
521.435,-338.021,167549
521.372,-340.315,167725
521.31,-342.61,168098
521.247,-344.905,166860
521.185,-347.201,166524
521.123,-349.498,165983
521.06,-351.795,166078
520.998,-354.092,165584
520.936,-356.39,165585
520.873,-358.689,165559
520.811,-360.988,164210
520.748,-363.287,163725
520.686,-365.588,163039
520.624,-367.889,162903
520.561,-370.19,162078
520.499,-372.492,161368
520.437,-374.794,161267
520.374,-377.097,160974
520.312,-379.401,160739
520.249,-381.705,160070
520.187,-384.009,159713
520.125,-386.315,159699
520.062,-388.62,158996
520.0,-390.927,159115
519.938,-393.234,158952
519.875,-395.541,158826
519.813,-397.849,158205
519.751,-400.158,158034
519.688,-402.467,158067
519.626,-404.776,158125
519.563,-407.086,157526
519.501,-409.397,156684
519.439,-411.708,156467
519.376,-414.02,155990
519.314,-416.333,155823
519.252,-418.646,154996
519.189,-420.959,154030
519.127,-423.273,153868
519.064,-425.588,153188
519.002,-427.903,152475
518.94,-430.219,152135
518.877,-432.535,151293
518.815,-434.852,151262
518.753,-437.169,150710
518.69,-439.487,150285
518.628,-441.806,149699
518.565,-444.125,148991
518.503,-446.445,148795
518.441,-448.765,148492
518.378,-451.086,148131
518.316,-453.407,148000
518.254,-455.729,148073
518.191,-458.051,147908
518.129,-460.374,147369
518.067,-462.698,147947
518.004,-465.022,147764
517.942,-467.347,147660
517.879,-469.672,146858
517.817,-471.998,147021
517.755,-474.324,146489
517.692,-476.651,146545
517.63,-478.978,146633
517.568,-481.306,146148
517.505,-483.635,146251
517.443,-485.964,146710
517.38,-488.294,147074
517.318,-490.624,147552
517.256,-492.955,149250
517.193,-495.286,151102
517.131,-497.618,151581
517.069,-499.951,152559
517.006,-502.284,150945
516.944,-504.618,148930
516.881,-506.952,147065
516.819,-509.287,145230
516.757,-511.622,143931
516.694,-513.958,143909
516.632,-516.294,142481
516.57,-518.631,142998
516.507,-520.969,143091
516.445,-523.307,141919
516.383,-525.646,142595
516.32,-527.985,141127
516.258,-530.325,140829
516.195,-532.665,141356
516.133,-535.006,140992
516.071,-537.348,140922
516.008,-539.69,140426
515.946,-542.033,140595
515.884,-544.376,140098
515.821,-546.72,139976
515.759,-549.064,139807
515.696,-551.409,139313
515.634,-553.755,139855
515.572,-556.101,139346
515.509,-558.448,139211
515.447,-560.795,138008
515.385,-563.143,139037
515.322,-565.491,138654
515.26,-567.84,138026
515.198,-570.189,137657
515.135,-572.539,137566
515.073,-574.89,137798
515.01,-577.241,137182
514.948,-579.593,137709
514.886,-581.945,137346
514.823,-584.298,136923
514.761,-586.652,137742
514.699,-589.006,136967
514.636,-591.361,136140
514.574,-593.716,136767
514.511,-596.072,136177
514.449,-598.428,135935
514.387,-600.785,136795
514.324,-603.142,135823
514.262,-605.5,135461
514.2,-607.859,135250
514.137,-610.218,135300
514.075,-612.578,134771
514.012,-614.938,134869
513.95,-617.299,134710
513.888,-619.661,133925
513.825,-622.023,133638
513.763,-624.385,133900
513.701,-626.749,132994
513.638,-629.112,133306
513.576,-631.477,132893
513.514,-633.842,132415
513.451,-636.207,131948
513.389,-638.573,131797
513.326,-640.94,131915
513.264,-643.307,131948
513.202,-645.675,131334
513.139,-648.043,130967
513.077,-650.412,130568
513.015,-652.782,130641
512.952,-655.152,130647
512.89,-657.523,129866
512.827,-659.894,129889
512.765,-662.266,129209
512.703,-664.638,129503
512.64,-667.011,128747
512.578,-669.385,128601
512.516,-671.759,129110
512.453,-674.134,128344
512.391,-676.509,128534
512.328,-678.885,127622
512.266,-681.261,127310
512.204,-683.638,126703
512.141,-686.016,126682
512.079,-688.394,132563
512.017,-690.773,126517
511.954,-693.152,125599
511.892,-695.532,125802
511.83,-697.913,125971
511.767,-700.294,124994
511.705,-702.676,125017
511.642,-705.058,124651
511.58,-707.441,124121
511.518,-709.824,124613
511.455,-712.208,123631
511.393,-714.593,124063
511.331,-716.978,122840
511.268,-719.364,123295
511.206,-721.75,122152
511.143,-724.137,122496
511.081,-726.525,121954
511.019,-728.913,122068
510.956,-731.301,121976
510.894,-733.691,121718
510.832,-736.08,121242
510.769,-738.471,120884
510.707,-740.862,120495
510.644,-743.253,120302
510.582,-745.646,120194
510.52,-748.038,119576
510.457,-750.432,119560
510.395,-752.826,119217
510.333,-755.22,119779
510.27,-757.615,118745
510.208,-760.011,118236
510.146,-762.407,118408
510.083,-764.804,117867
510.021,-767.201,117721
509.958,-769.599,117284
509.896,-771.998,116616
509.834,-774.397,116946
509.771,-776.797,116026
509.709,-779.197,116455
509.647,-781.598,116126
509.584,-784,115649
509.522,-786.402,114493
509.459,-788.805,114641
509.397,-791.208,114918
509.335,-793.612,114709
509.272,-796.016,114047
509.21,-798.421,114033
509.148,-800.827,113651
509.085,-803.233,113813
509.023,-805.64,113674
508.96,-808.048,112889
508.898,-810.456,112449
508.836,-812.864,112556
508.773,-815.274,112293
508.711,-817.683,111953
525.364,-194.586,79951
525.301,-196.846,80484
525.239,-199.106,80503
525.177,-201.367,80709
525.114,-203.629,80812
525.052,-205.891,80960
524.99,-208.154,80624
524.927,-210.417,80923
524.865,-212.681,81198
524.802,-214.945,80908
524.74,-217.21,81125
524.678,-219.475,81280
524.615,-221.741,81661
524.553,-224.008,81286
524.491,-226.275,81634
524.428,-228.542,81416
524.366,-230.81,81374
524.304,-233.079,81794
524.241,-235.348,81885
524.179,-237.618,82002
524.116,-239.888,82288
524.054,-242.159,82554
523.992,-244.43,82417
523.929,-246.702,82687
523.867,-248.974,83116
523.805,-251.247,83283
523.742,-253.52,83876
523.68,-255.794,84725
523.617,-258.069,85682
523.555,-260.344,87516
523.493,-262.62,89780
523.43,-264.896,93487
523.368,-267.173,98521
523.306,-269.45,105347
523.243,-271.728,113513
523.181,-274.006,123130
523.119,-276.285,133011
523.056,-278.564,142490
522.994,-280.844,149736
522.931,-283.125,155855
522.869,-285.406,160618
522.807,-287.688,164770
522.744,-289.97,166668
522.682,-292.252,167484
522.62,-294.536,169275
522.557,-296.82,169526
522.495,-299.104,168857
522.432,-301.389,169154
522.37,-303.674,170346
522.308,-305.96,169767
522.245,-308.247,169557
522.183,-310.534,169628
522.121,-312.821,169670
522.058,-315.11,169443
521.996,-317.398,167918
521.933,-319.687,167107
521.871,-321.977,168027
521.809,-324.268,167097
521.746,-326.559,166651
521.684,-328.85,166330
521.622,-331.142,166226
521.559,-333.434,166217
521.497,-335.728,165411
521.435,-338.021,165483
521.372,-340.315,165534
521.31,-342.61,164768
521.247,-344.905,164963
521.185,-347.201,164892
521.123,-349.498,164232
521.06,-351.795,163677
520.998,-354.092,162961
520.936,-356.39,163087
520.873,-358.689,162695
520.811,-360.988,161204
520.748,-363.287,161050
520.686,-365.588,160565
520.624,-367.889,159821
520.561,-370.19,160124
520.499,-372.492,159259
520.437,-374.794,158226
520.374,-377.097,157860
520.312,-379.401,158667
520.249,-381.705,158335
520.187,-384.009,157890
520.125,-386.315,157193
520.062,-388.62,157020
520.0,-390.927,157085
519.938,-393.234,156882
519.875,-395.541,156748
519.813,-397.849,156399
519.751,-400.158,156045
519.688,-402.467,155980
519.626,-404.776,155984
519.563,-407.086,155321
519.501,-409.397,154545
519.439,-411.708,154523
519.376,-414.02,153608
519.314,-416.333,153757
519.252,-418.646,152167
519.189,-420.959,152266
519.127,-423.273,151419
519.064,-425.588,151672
519.002,-427.903,150398
518.94,-430.219,149399
518.877,-432.535,149300
518.815,-434.852,148987
518.753,-437.169,147288
518.69,-439.487,148629
518.628,-441.806,147136
518.565,-444.125,147015
518.503,-446.445,147388
518.441,-448.765,146938
518.378,-451.086,145726
518.316,-453.407,146586
518.254,-455.729,145571
518.191,-458.051,145800
518.129,-460.374,145677
518.067,-462.698,145248
518.004,-465.022,145858
517.942,-467.347,145389
517.879,-469.672,144291
517.817,-471.998,144684
517.755,-474.324,144699
517.692,-476.651,144713
517.63,-478.978,144263
517.568,-481.306,144502
517.505,-483.635,144037
517.443,-485.964,143878
517.38,-488.294,144338
517.318,-490.624,145918
517.256,-492.955,147210
517.193,-495.286,149322
517.131,-497.618,149946
517.069,-499.951,150454
517.006,-502.284,148378
516.944,-504.618,147450
516.881,-506.952,144991
516.819,-509.287,143750
516.757,-511.622,142433
516.694,-513.958,141514
516.632,-516.294,140862
516.57,-518.631,141119
516.507,-520.969,139563
516.445,-523.307,140423
516.383,-525.646,140273
516.32,-527.985,139856
516.258,-530.325,139321
516.195,-532.665,139396
516.133,-535.006,138845
516.071,-537.348,139373
516.008,-539.69,139080
515.946,-542.033,138553
515.884,-544.376,138949
515.821,-546.72,138021
515.759,-549.064,138800
515.696,-551.409,137602
515.634,-553.755,137520
515.572,-556.101,137950
515.509,-558.448,137276
515.447,-560.795,136379
515.385,-563.143,136208
515.322,-565.491,136447
515.26,-567.84,136826
515.198,-570.189,136720
515.135,-572.539,136319
515.073,-574.89,136190
515.01,-577.241,135761
514.948,-579.593,136011
514.886,-581.945,136095
514.823,-584.298,135273
514.761,-586.652,135731
514.699,-589.006,134950
514.636,-591.361,135077
514.574,-593.716,134587
514.511,-596.072,134643
514.449,-598.428,134608
514.387,-600.785,134346
514.324,-603.142,134391
514.262,-605.5,133753
514.2,-607.859,134134
514.137,-610.218,133566
514.075,-612.578,134073
514.012,-614.938,132963
513.95,-617.299,132864
513.888,-619.661,132331
513.825,-622.023,131974
513.763,-624.385,131754
513.701,-626.749,132047
513.638,-629.112,131018
513.576,-631.477,130979
513.514,-633.842,131327
513.451,-636.207,130546
513.389,-638.573,131009
513.326,-640.94,130453
513.264,-643.307,130332
513.202,-645.675,129338
513.139,-648.043,129456
513.077,-650.412,128757
513.015,-652.782,129285
512.952,-655.152,128605
512.89,-657.523,127952
512.827,-659.894,128143
512.765,-662.266,127795
512.703,-664.638,128311
512.64,-667.011,127389
512.578,-669.385,126876
512.516,-671.759,127511
512.453,-674.134,126815
512.391,-676.509,126370
512.328,-678.885,125983
512.266,-681.261,125806
512.204,-683.638,125346
512.141,-686.016,125472
512.079,-688.394,124686
512.017,-690.773,124556
511.954,-693.152,124420
511.892,-695.532,124038
511.83,-697.913,123810
511.767,-700.294,123285
511.705,-702.676,123188
511.642,-705.058,123193
511.58,-707.441,122764
511.518,-709.824,123051
511.455,-712.208,121882
511.393,-714.593,122300
511.331,-716.978,121780
511.268,-719.364,121642
511.206,-721.75,121463
511.143,-724.137,120941
511.081,-726.525,120428
511.019,-728.913,120598
510.956,-731.301,120883
510.894,-733.691,120400
510.832,-736.08,119558
510.769,-738.471,119837
510.707,-740.862,119344
510.644,-743.253,119060
510.582,-745.646,118419
510.52,-748.038,118113
510.457,-750.432,118448
510.395,-752.826,118004
510.333,-755.22,117244
510.27,-757.615,116900
510.208,-760.011,117052
510.146,-762.407,117297
510.083,-764.804,116095
510.021,-767.201,116218
509.958,-769.599,116463
509.896,-771.998,115368
509.834,-774.397,115277
509.771,-776.797,114970
509.709,-779.197,114261
509.647,-781.598,114639
509.584,-784,114177
509.522,-786.402,113596
509.459,-788.805,113957
509.397,-791.208,113043
509.335,-793.612,113447
509.272,-796.016,112744
509.21,-798.421,112587
509.148,-800.827,112634
509.085,-803.233,112367
509.023,-805.64,111889
508.96,-808.048,111605
508.898,-810.456,111494
508.836,-812.864,111522
508.773,-815.274,111047
508.711,-817.683,110599
525.364,-194.586,80233
525.301,-196.846,80780
525.239,-199.106,81173
525.177,-201.367,80897
525.114,-203.629,81030
525.052,-205.891,81661
524.99,-208.154,81224
524.927,-210.417,81437
524.865,-212.681,81418
524.802,-214.945,81357
524.74,-217.21,81614
524.678,-219.475,81643
524.615,-221.741,81713
524.553,-224.008,81939
524.491,-226.275,82018
524.428,-228.542,82055
524.366,-230.81,82238
524.304,-233.079,82419
524.241,-235.348,82393
524.179,-237.618,82445
524.116,-239.888,82516
524.054,-242.159,82759
523.992,-244.43,82981
523.929,-246.702,83012
523.867,-248.974,83399
523.805,-251.247,83565
523.742,-253.52,84508
523.68,-255.794,85177
523.617,-258.069,86720
523.555,-260.344,88199
523.493,-262.62,91014
523.43,-264.896,94156
523.368,-267.173,99827
523.306,-269.45,106943
523.243,-271.728,115205
523.181,-274.006,125603
523.119,-276.285,134704
523.056,-278.564,144641
522.994,-280.844,153083
522.931,-283.125,159434
522.869,-285.406,164097
522.807,-287.688,167828
522.744,-289.97,170117
522.682,-292.252,172275
522.62,-294.536,172900
522.557,-296.82,173000
522.495,-299.104,173793
522.432,-301.389,173626
522.37,-303.674,173602
522.308,-305.96,174039
522.245,-308.247,173428
522.183,-310.534,172135
522.121,-312.821,172520
522.058,-315.11,172779
521.996,-317.398,171739
521.933,-319.687,171710
521.871,-321.977,171490
521.809,-324.268,170626
521.746,-326.559,170282
521.684,-328.85,170132
521.622,-331.142,169658
521.559,-333.434,169989
521.497,-335.728,168957
521.435,-338.021,168826
521.372,-340.315,168950
521.31,-342.61,169059
521.247,-344.905,168249
521.185,-347.201,168179
521.123,-349.498,167852
521.06,-351.795,167088
520.998,-354.092,167123
520.936,-356.39,166334
520.873,-358.689,165752
520.811,-360.988,164822
520.748,-363.287,164255
520.686,-365.588,164734
520.624,-367.889,163429
520.561,-370.19,162850
520.499,-372.492,163200
520.437,-374.794,162182
520.374,-377.097,161984
520.312,-379.401,161562
520.249,-381.705,161247
520.187,-384.009,161316
520.125,-386.315,160850
520.062,-388.62,160962
520.0,-390.927,160542
519.938,-393.234,160235
519.875,-395.541,159509
519.813,-397.849,159440
519.751,-400.158,159791
519.688,-402.467,159594
519.626,-404.776,159248
519.563,-407.086,158033
519.501,-409.397,158198
519.439,-411.708,157568
519.376,-414.02,156647
519.314,-416.333,156314
519.252,-418.646,156772
519.189,-420.959,155228
519.127,-423.273,155194
519.064,-425.588,154189
519.002,-427.903,153212
518.94,-430.219,152696
518.877,-432.535,152180
518.815,-434.852,151813
518.753,-437.169,150977
518.69,-439.487,150175
518.628,-441.806,151348
518.565,-444.125,150276
518.503,-446.445,149484
518.441,-448.765,149796
518.378,-451.086,149014
518.316,-453.407,148874
518.254,-455.729,149845
518.191,-458.051,149430
518.129,-460.374,148491
518.067,-462.698,148510
518.004,-465.022,147924
517.942,-467.347,148101
517.879,-469.672,148606
517.817,-471.998,147387
517.755,-474.324,147589
517.692,-476.651,146815
517.63,-478.978,147308
517.568,-481.306,147572
517.505,-483.635,147274
517.443,-485.964,148188
517.38,-488.294,148468
517.318,-490.624,149048
517.256,-492.955,149508
517.193,-495.286,152192
517.131,-497.618,152853
517.069,-499.951,152948
517.006,-502.284,152006
516.944,-504.618,150489
516.881,-506.952,147916
516.819,-509.287,146174
516.757,-511.622,145287
516.694,-513.958,145013
516.632,-516.294,144361
516.57,-518.631,143851
516.507,-520.969,143262
516.445,-523.307,143380
516.383,-525.646,142131
516.32,-527.985,143067
516.258,-530.325,142131
516.195,-532.665,141835
516.133,-535.006,142109
516.071,-537.348,141412
516.008,-539.69,141566
515.946,-542.033,140635
515.884,-544.376,140823
515.821,-546.72,140891
515.759,-549.064,140445
515.696,-551.409,140550
515.634,-553.755,140545
515.572,-556.101,140530
515.509,-558.448,139779
515.447,-560.795,139453
515.385,-563.143,139097
515.322,-565.491,139048
515.26,-567.84,139154
515.198,-570.189,139293
515.135,-572.539,139625
515.073,-574.89,139274
515.01,-577.241,138393
514.948,-579.593,138526
514.886,-581.945,138253
514.823,-584.298,138205
514.761,-586.652,137907
514.699,-589.006,138487
514.636,-591.361,137941
514.574,-593.716,137835
514.511,-596.072,137088
514.449,-598.428,136632
514.387,-600.785,136688
514.324,-603.142,136824
514.262,-605.5,136810
514.2,-607.859,135791
514.137,-610.218,135583
514.075,-612.578,136166
514.012,-614.938,135506
513.95,-617.299,135098
513.888,-619.661,134970
513.825,-622.023,134741
513.763,-624.385,133996
513.701,-626.749,134029
513.638,-629.112,133632
513.576,-631.477,133727
513.514,-633.842,133518
513.451,-636.207,132785
513.389,-638.573,133045
513.326,-640.94,132618
513.264,-643.307,132247
513.202,-645.675,132285
513.139,-648.043,131853
513.077,-650.412,131849
513.015,-652.782,131704
512.952,-655.152,131241
512.89,-657.523,130832
512.827,-659.894,130696
512.765,-662.266,130387
512.703,-664.638,130908
512.64,-667.011,130454
512.578,-669.385,129445
512.516,-671.759,128851
512.453,-674.134,129120
512.391,-676.509,128744
512.328,-678.885,129024
512.266,-681.261,128142
512.204,-683.638,128125
512.141,-686.016,127720
512.079,-688.394,127303
512.017,-690.773,126859
511.954,-693.152,126398
511.892,-695.532,126348
511.83,-697.913,125859
511.767,-700.294,125690
511.705,-702.676,125663
511.642,-705.058,124819
511.58,-707.441,125158
511.518,-709.824,125272
511.455,-712.208,124609
511.393,-714.593,124477
511.331,-716.978,124078
511.268,-719.364,123413
511.206,-721.75,123133
511.143,-724.137,123174
511.081,-726.525,123239
511.019,-728.913,122336
510.956,-731.301,122281
510.894,-733.691,122238
510.832,-736.08,121611
510.769,-738.471,121739
510.707,-740.862,121215
510.644,-743.253,121122
510.582,-745.646,120824
510.52,-748.038,120823
510.457,-750.432,119883
510.395,-752.826,119973
510.333,-755.22,119306
510.27,-757.615,119133
510.208,-760.011,118999
510.146,-762.407,118497
510.083,-764.804,117871
510.021,-767.201,118889
509.958,-769.599,117498
509.896,-771.998,117686
509.834,-774.397,117368
509.771,-776.797,116625
509.709,-779.197,116071
509.647,-781.598,116698
509.584,-784,116000
509.522,-786.402,116081
509.459,-788.805,115198
509.397,-791.208,115113
509.335,-793.612,115177
509.272,-796.016,114800
509.21,-798.421,115284
509.148,-800.827,114101
509.085,-803.233,113990
509.023,-805.64,113946
508.96,-808.048,113446
508.898,-810.456,113416
508.836,-812.864,113176
508.773,-815.274,112529
508.711,-817.683,113013
508.661,-819.612,112360