File: tomke/20240809_Si_on_TiO2/20240809/raw_data/Si_onTiO2_0mA_30mW_30sec_1acc_517nm.txt
Wavelength(nm), Raman shift(cm^-1), Intensity(counts)
525.312,-196.464,59770
525.3,-196.913,59872
525.287,-197.363,59828
525.275,-197.812,60013
525.262,-198.261,59996
525.25,-198.711,60121
525.238,-199.16,60018
525.225,-199.609,60037
525.213,-200.059,60049
525.2,-200.508,59959
525.188,-200.958,59968
525.176,-201.407,59938
525.163,-201.856,59962
525.151,-202.306,59995
525.138,-202.755,59951
525.126,-203.205,59945
525.114,-203.655,59969
525.101,-204.104,60024
525.089,-204.554,59951
525.076,-205.003,60088
525.064,-205.453,60047
525.052,-205.903,60068
525.039,-206.352,60047
525.027,-206.802,59947
525.014,-207.252,59981
525.002,-207.702,60009
524.99,-208.151,60031
524.977,-208.601,59975
524.965,-209.051,60015
524.952,-209.501,59956
524.94,-209.951,60023
524.928,-210.401,59966
524.915,-210.85,59987
524.903,-211.3,60011
524.89,-211.75,59984
524.878,-212.2,60017
524.866,-212.65,59991
524.853,-213.1,60011
524.841,-213.55,59998
524.829,-214,60035
524.816,-214.45,60041
524.804,-214.901,59989
524.791,-215.351,59942
524.779,-215.801,60012
524.767,-216.251,59905
524.754,-216.701,59963
524.742,-217.151,59997
524.729,-217.602,60060
524.717,-218.052,60067
524.705,-218.502,59977
524.692,-218.952,59989
524.68,-219.403,60013
524.667,-219.853,59962
524.655,-220.303,59972
524.643,-220.754,60022
524.63,-221.204,59926
524.618,-221.654,60010
524.605,-222.105,60022
524.593,-222.555,59958
524.581,-223.006,60101
524.568,-223.456,59912
524.556,-223.907,60013
524.543,-224.357,59978
524.531,-224.808,59977
524.519,-225.259,59993
524.506,-225.709,60004
524.494,-226.16,60092
524.481,-226.61,60119
524.469,-227.061,60039
524.457,-227.512,59918
524.444,-227.962,60028
524.432,-228.413,60031
524.419,-228.864,60006
524.407,-229.315,60017
524.395,-229.766,59921
524.382,-230.216,59966
524.37,-230.667,60009
524.357,-231.118,59947
524.345,-231.569,59902
524.333,-232.02,59891
524.32,-232.471,59922
524.308,-232.922,60013
524.295,-233.373,59941
524.283,-233.824,60058
524.271,-234.275,60027
524.258,-234.726,60015
524.246,-235.177,59978
524.233,-235.628,59936
524.221,-236.079,60086
524.209,-236.53,59954
524.196,-236.981,59982
524.184,-237.432,60015
524.171,-237.883,59982
524.159,-238.335,60092
524.147,-238.786,59967
524.134,-239.237,59954
524.122,-239.688,59968
524.11,-240.14,60001
524.097,-240.591,59986
524.085,-241.042,60045
524.072,-241.494,59966
524.06,-241.945,60019
524.048,-242.396,60043
524.035,-242.848,59951
524.023,-243.299,60051
524.01,-243.751,60020
523.998,-244.202,60035
523.986,-244.654,59963
523.973,-245.105,59922
523.961,-245.557,59984
523.948,-246.008,59976
523.936,-246.46,59949
523.924,-246.912,59914
523.911,-247.363,60019
523.899,-247.815,60014
523.886,-248.266,59949
523.874,-248.718,59989
523.862,-249.17,60001
523.849,-249.622,59942
523.837,-250.073,60066
523.824,-250.525,59985
523.812,-250.977,59964
523.8,-251.429,59985
523.787,-251.881,60004
523.775,-252.332,59979
523.762,-252.784,60038
523.75,-253.236,59999
523.738,-253.688,59976
523.725,-254.14,59983
523.713,-254.592,60073
523.7,-255.044,60042
523.688,-255.496,59998
523.676,-255.948,59993
523.663,-256.4,59963
523.651,-256.852,59938
523.638,-257.304,60012
523.626,-257.756,60008
523.614,-258.209,60071
523.601,-258.661,59896
523.589,-259.113,60008
523.576,-259.565,60070
523.564,-260.017,60036
523.552,-260.47,60045
523.539,-260.922,60004
523.527,-261.374,60030
523.514,-261.827,59991
523.502,-262.279,60034
523.49,-262.731,59968
523.477,-263.184,60023
523.465,-263.636,59998
523.452,-264.088,60013
523.44,-264.541,60006
523.428,-264.993,60039
523.415,-265.446,59961
523.403,-265.898,60008
523.39,-266.351,60107
523.378,-266.803,60012
523.366,-267.256,60044
523.353,-267.709,59962
523.341,-268.161,59993
523.329,-268.614,60065
523.316,-269.066,60004
523.304,-269.519,60051
523.291,-269.972,60077
523.279,-270.425,60030
523.267,-270.877,60011
523.254,-271.33,60039
523.242,-271.783,59968
523.229,-272.236,60099
523.217,-272.688,59988
523.205,-273.141,60069
523.192,-273.594,60132
523.18,-274.047,60016
523.167,-274.5,60088
523.155,-274.953,60165
523.143,-275.406,60046
523.13,-275.859,60104
523.118,-276.312,60213
523.105,-276.765,60101
523.093,-277.218,60123
523.081,-277.671,60153
523.068,-278.124,60095
523.056,-278.577,60090
523.043,-279.03,60218
523.031,-279.483,60088
523.019,-279.937,60112
523.006,-280.39,60074
522.994,-280.843,60110
522.981,-281.296,60125
522.969,-281.749,60231
522.957,-282.203,60201
522.944,-282.656,60222
522.932,-283.109,60129
522.919,-283.563,60195
522.907,-284.016,60230
522.895,-284.469,60156
522.882,-284.923,60243
522.87,-285.376,60196
522.857,-285.83,60203
522.845,-286.283,60187
522.833,-286.737,60312
522.82,-287.19,60233
522.808,-287.644,60250
522.795,-288.097,60170
522.783,-288.551,60191
522.771,-289.005,60145
522.758,-289.458,60212
522.746,-289.912,60244
522.733,-290.365,60295
522.721,-290.819,60284
522.709,-291.273,60276
522.696,-291.727,60222
522.684,-292.18,60246
522.671,-292.634,60155
522.659,-293.088,60230
522.647,-293.542,60231
522.634,-293.996,60278
522.622,-294.449,60182
522.61,-294.903,60161
522.597,-295.357,60294
522.585,-295.811,60274
522.572,-296.265,60256
522.56,-296.719,60280
522.548,-297.173,60216
522.535,-297.627,60258
522.523,-298.081,60250
522.51,-298.535,60198
522.498,-298.989,60201
522.486,-299.443,60197
522.473,-299.897,60224
522.461,-300.352,60361
522.448,-300.806,60310
522.436,-301.26,60339
522.424,-301.714,60294
522.411,-302.168,60279
522.399,-302.623,60290
522.386,-303.077,60309
522.374,-303.531,60342
522.362,-303.985,60320
522.349,-304.44,60300
522.337,-304.894,60267
522.324,-305.348,60293
522.312,-305.803,60300
522.3,-306.257,60408
522.287,-306.712,60306
522.275,-307.166,60297
522.262,-307.621,60353
522.25,-308.075,60375
522.238,-308.53,60317
522.225,-308.984,60260
522.213,-309.439,60372
522.2,-309.893,60313
522.188,-310.348,60365
522.176,-310.803,60283
522.163,-311.257,60237
522.151,-311.712,60247
522.138,-312.167,60207
522.126,-312.621,60286
522.114,-313.076,60257
522.101,-313.531,60159
522.089,-313.986,60253
522.076,-314.441,60219
522.064,-314.895,60264
522.052,-315.35,60342
522.039,-315.805,60291
522.027,-316.26,60197
522.014,-316.715,60232
522.002,-317.17,60256
521.99,-317.625,60283
521.977,-318.08,60301
521.965,-318.535,60288
521.952,-318.99,60261
521.94,-319.445,60170
521.928,-319.9,60191
521.915,-320.355,60266
521.903,-320.81,60234
521.89,-321.265,60291
521.878,-321.72,60233
521.866,-322.176,60236
521.853,-322.631,60148
521.841,-323.086,60142
521.829,-323.541,60258
521.816,-323.996,60123
521.804,-324.452,60241
521.791,-324.907,60206
521.779,-325.362,60187
521.767,-325.818,60163
521.754,-326.273,60161
521.742,-326.728,60123
521.729,-327.184,60160
521.717,-327.639,60236
521.705,-328.095,60223
521.692,-328.55,60157
521.68,-329.006,60162
521.667,-329.461,60163
521.655,-329.917,60149
521.643,-330.372,60209
521.63,-330.828,60229
521.618,-331.284,60231
521.605,-331.739,60211
521.593,-332.195,60163
521.581,-332.651,60217
521.568,-333.106,60179
521.556,-333.562,60181
521.543,-334.018,60181
521.531,-334.473,60206
521.519,-334.929,60222
521.506,-335.385,60186
521.494,-335.841,60218
521.481,-336.297,60175
521.469,-336.753,60198
521.457,-337.208,60275
521.444,-337.664,60164
521.432,-338.12,60168
521.419,-338.576,60139
521.407,-339.032,60200
521.395,-339.488,60190
521.382,-339.944,60058
521.37,-340.4,60129
521.357,-340.856,60165
521.345,-341.312,60130
521.333,-341.769,60076
521.32,-342.225,60173
521.308,-342.681,60098
521.295,-343.137,60134
521.283,-343.593,60124
521.271,-344.049,60167
521.258,-344.506,60056
521.246,-344.962,60118
521.233,-345.418,60144
521.221,-345.874,60098
521.209,-346.331,60097
521.196,-346.787,60178
521.184,-347.243,60141
521.171,-347.7,60124
521.159,-348.156,60157
521.147,-348.613,60112
521.134,-349.069,60215
521.122,-349.526,60100
521.11,-349.982,60168
521.097,-350.439,60092
521.085,-350.895,60138
521.072,-351.352,60068
521.06,-351.808,60120
521.048,-352.265,60094
521.035,-352.722,60072
521.023,-353.178,60215
521.01,-353.635,60111
520.998,-354.092,60131
520.986,-354.548,60127
520.973,-355.005,60148
520.961,-355.462,60127
520.948,-355.919,60157
520.936,-356.375,60093
520.924,-356.832,60113
520.911,-357.289,60101
520.899,-357.746,60014
520.886,-358.203,60104
520.874,-358.66,60161
520.862,-359.117,60105
520.849,-359.574,60155
520.837,-360.031,60104
520.824,-360.488,60124
520.812,-360.945,60048
520.8,-361.402,60171
520.787,-361.859,60184
520.775,-362.316,60224
520.762,-362.773,60223
520.75,-363.23,60023
520.738,-363.687,60078
520.725,-364.144,60197
520.713,-364.602,60074
520.7,-365.059,60018
520.688,-365.516,60054
520.676,-365.973,60163
520.663,-366.43,60081
520.651,-366.888,60163
520.638,-367.345,60203
520.626,-367.802,60124
520.614,-368.26,60040
520.601,-368.717,60050
520.589,-369.175,60186
520.576,-369.632,60174
520.564,-370.09,60079
520.552,-370.547,60068
520.539,-371.004,60122
520.527,-371.462,60086
520.514,-371.92,60133
520.502,-372.377,60111
520.49,-372.835,60148
520.477,-373.292,60095
520.465,-373.75,60119
520.452,-374.208,60112
520.44,-374.665,60006
520.428,-375.123,60070
520.415,-375.581,60092
520.403,-376.038,60073
520.39,-376.496,60085
520.378,-376.954,60097
520.366,-377.412,60079
520.353,-377.87,60105
520.341,-378.327,60107
520.329,-378.785,60028
520.316,-379.243,60099
520.304,-379.701,60102
520.291,-380.159,60204
520.279,-380.617,60022
520.267,-381.075,60020
520.254,-381.533,60076
520.242,-381.991,60043
520.229,-382.449,60133
520.217,-382.907,60032
520.205,-383.365,60058
520.192,-383.823,59983
520.18,-384.281,60115
520.167,-384.74,60123
520.155,-385.198,59990
520.143,-385.656,60029
520.13,-386.114,60119
520.118,-386.572,60099
520.105,-387.031,60065
520.093,-387.489,60148
520.081,-387.947,60070
520.068,-388.406,60060
520.056,-388.864,60134
520.043,-389.322,60029
520.031,-389.781,60150
520.019,-390.239,60097
520.006,-390.698,60079
519.994,-391.156,60092
519.981,-391.614,60057
519.969,-392.073,60057
519.957,-392.531,59950
519.944,-392.99,60071
519.932,-393.449,59990
519.919,-393.907,60051
519.907,-394.366,59982
519.895,-394.824,60110
519.882,-395.283,60062
519.87,-395.742,60012
519.857,-396.2,60096
519.845,-396.659,60103
519.833,-397.118,60031
519.82,-397.577,60113
519.808,-398.035,60057
519.795,-398.494,60046
519.783,-398.953,60010
519.771,-399.412,60072
519.758,-399.871,60066
519.746,-400.33,60090
519.733,-400.789,60144
519.721,-401.248,60067
519.709,-401.707,60056
519.696,-402.166,60154
519.684,-402.625,59997
519.671,-403.084,60062
519.659,-403.543,60120
519.647,-404.002,60140
519.634,-404.461,60041
519.622,-404.92,60129
519.61,-405.379,60035
519.597,-405.838,59999
519.585,-406.297,60042
519.572,-406.757,60027
519.56,-407.216,60064
519.548,-407.675,60053
519.535,-408.134,60066
519.523,-408.594,60115
519.51,-409.053,60050
519.498,-409.512,60135
519.486,-409.972,60192
519.473,-410.431,60087
519.461,-410.89,60037
519.448,-411.35,60137
519.436,-411.809,60139
519.424,-412.269,60042
519.411,-412.728,60085
519.399,-413.188,60063
519.386,-413.647,60019
519.374,-414.107,60123
519.362,-414.566,60090
519.349,-415.026,60070
519.337,-415.486,60023
519.324,-415.945,60049
519.312,-416.405,60012
519.3,-416.865,60078
519.287,-417.324,60136
519.275,-417.784,60056
519.262,-418.244,60060
519.25,-418.703,60052
519.238,-419.163,60059
519.225,-419.623,60021
519.213,-420.083,60030
519.2,-420.543,59983
519.188,-421.003,60069
519.176,-421.463,60070
519.163,-421.922,59991
519.151,-422.382,60046
519.138,-422.842,59994
519.126,-423.302,60156
519.114,-423.762,60038
519.101,-424.222,60141
519.089,-424.683,60099
519.076,-425.143,60003
519.064,-425.603,60092
519.052,-426.063,60115
519.039,-426.523,60125
519.027,-426.983,60032
519.014,-427.443,60111
519.002,-427.904,60028
518.99,-428.364,60080
518.977,-428.824,60024
518.965,-429.284,60161
518.952,-429.745,60063
518.94,-430.205,60141
518.928,-430.665,60102
518.915,-431.126,60095
518.903,-431.586,60085
518.89,-432.046,60174
518.878,-432.507,60071
518.866,-432.967,60059
518.853,-433.428,60075
518.841,-433.888,60104
518.829,-434.349,60050
518.816,-434.809,60149
518.804,-435.27,60137
518.791,-435.73,60093
518.779,-436.191,60073
518.767,-436.652,60025
518.754,-437.112,60101
518.742,-437.573,60088
518.729,-438.034,60067
518.717,-438.494,60140
518.705,-438.955,60032
518.692,-439.416,60051
518.68,-439.877,60035
518.667,-440.338,60077
518.655,-440.798,60132
518.643,-441.259,60071
518.63,-441.72,60008
518.618,-442.181,59958
518.605,-442.642,60086
518.593,-443.103,59984
518.581,-443.564,60026
518.568,-444.025,60010
518.556,-444.486,60090
518.543,-444.947,59996
518.531,-445.408,60029
518.519,-445.869,60040
518.506,-446.33,60090
518.494,-446.791,60029
518.481,-447.252,60074
518.469,-447.713,60073
518.457,-448.175,60028
518.444,-448.636,60019
518.432,-449.097,60006
518.419,-449.558,59967
518.407,-450.02,60021
518.395,-450.481,60063
518.382,-450.942,60031
518.37,-451.404,60052
518.357,-451.865,59970
518.345,-452.326,60029
518.333,-452.788,59998
518.32,-453.249,60066
518.308,-453.711,60066
518.295,-454.172,60093
518.283,-454.633,60073
518.271,-455.095,60004
518.258,-455.557,60029
518.246,-456.018,59947
518.233,-456.48,60052
518.221,-456.941,59942
518.209,-457.403,59981
518.196,-457.865,59995
518.184,-458.326,60023
518.171,-458.788,60053
518.159,-459.25,60008
518.147,-459.711,59971
518.134,-460.173,59944
518.122,-460.635,60025
518.11,-461.097,59985
518.097,-461.558,60066
518.085,-462.02,59963
518.072,-462.482,59990
518.06,-462.944,59994
518.048,-463.406,59941
518.035,-463.868,59994
518.023,-464.33,60099
518.01,-464.792,60019
517.998,-465.254,60045
517.986,-465.716,59953
517.973,-466.178,60062
517.961,-466.64,59997
517.948,-467.102,60007
517.936,-467.564,60095
517.924,-468.026,60036
517.911,-468.488,60004
517.899,-468.951,60089
517.886,-469.413,60070
517.874,-469.875,59995
517.862,-470.337,60018
517.849,-470.8,60067
517.837,-471.262,59907
517.824,-471.724,60079
517.812,-472.186,59959
517.8,-472.649,60022
517.787,-473.111,60077
517.775,-473.574,60073
517.762,-474.036,60093
517.75,-474.498,59943
517.738,-474.961,60031
517.725,-475.423,60046
517.713,-475.886,60082
517.7,-476.348,60099
517.688,-476.811,60016
517.676,-477.274,60015
517.663,-477.736,60022
517.651,-478.199,60085
517.638,-478.661,60084
517.626,-479.124,60081
517.614,-479.587,60095
517.601,-480.049,60032
517.589,-480.512,59973
517.576,-480.975,59978
517.564,-481.438,60020
517.552,-481.9,60004
517.539,-482.363,60047
517.527,-482.826,59994
517.514,-483.289,59987
517.502,-483.752,60108
517.49,-484.215,60000
517.477,-484.678,60052
517.465,-485.141,60048
517.452,-485.604,59962
517.44,-486.067,60148
517.428,-486.53,60016
517.415,-486.993,60065
517.403,-487.456,60090
517.39,-487.919,60045
517.378,-488.382,60087
517.366,-488.845,60154
517.353,-489.308,60086
517.341,-489.771,60068
517.329,-490.235,60098
517.316,-490.698,60064
517.304,-491.161,60044
517.291,-491.624,60097
517.279,-492.088,59995
517.267,-492.551,60053
517.254,-493.014,60073
517.242,-493.478,60107
517.229,-493.941,60005
517.217,-494.404,60057
517.205,-494.868,60094
517.192,-495.331,60024
517.18,-495.795,60089
517.167,-496.258,60112
517.155,-496.722,60051
517.143,-497.185,60115
517.13,-497.649,60103
517.118,-498.112,60029
517.105,-498.576,60024
517.093,-499.039,60085
517.081,-499.503,60059
517.068,-499.967,60057
517.056,-500.43,60073
517.043,-500.894,60186
517.031,-501.358,60141
517.019,-501.822,60127
517.006,-502.285,60140
516.994,-502.749,60195
516.981,-503.213,60140
516.969,-503.677,60098
516.957,-504.141,60103
516.944,-504.605,60114
516.932,-505.068,60176
516.919,-505.532,60098
516.907,-505.996,60143
516.895,-506.46,60220
516.882,-506.924,60136
516.87,-507.388,60213
516.857,-507.852,60260
516.845,-508.316,60117
516.833,-508.781,60276
516.82,-509.245,60245
516.808,-509.709,60319
516.795,-510.173,60276
516.783,-510.637,60336
516.771,-511.101,60447
516.758,-511.565,60426
516.746,-512.03,60341
516.733,-512.494,60489
516.721,-512.958,60580
516.709,-513.423,60683
516.696,-513.887,60874
516.684,-514.351,60944
516.671,-514.816,61206
516.659,-515.28,61382
516.647,-515.744,61762
516.634,-516.209,62188
516.622,-516.673,62991
516.61,-517.138,63671
516.597,-517.602,64768
516.585,-518.067,65536
516.572,-518.531,66394
516.56,-518.996,66752
516.548,-519.461,67471
516.535,-519.925,67758
516.523,-520.39,68073
516.51,-520.854,68005
516.498,-521.319,67770
516.486,-521.784,67377
516.473,-522.249,66850
516.461,-522.713,66091
516.448,-523.178,65529
516.436,-523.643,64743
516.424,-524.108,64039
516.411,-524.573,63587
516.399,-525.037,63053
516.386,-525.502,62620
516.374,-525.967,62407
516.362,-526.432,61926
516.349,-526.897,61571
516.337,-527.362,61212
516.324,-527.827,61165
516.312,-528.292,60906
516.3,-528.757,60673
516.287,-529.222,60649
516.275,-529.687,60544
516.262,-530.152,60505
516.25,-530.618,60427
516.238,-531.083,60362
516.225,-531.548,60249
516.213,-532.013,60416
516.2,-532.478,60251
516.188,-532.944,60193
516.176,-533.409,60219
516.163,-533.874,60189
516.151,-534.339,60204
516.138,-534.805,60209
516.126,-535.27,60215
516.114,-535.735,60138
516.101,-536.201,60212
516.089,-536.666,60102
516.076,-537.132,60154
516.064,-537.597,60171
516.052,-538.063,60172
516.039,-538.528,60070
516.027,-538.994,60131
516.014,-539.459,60169
516.002,-539.925,60142
515.99,-540.39,60186
515.977,-540.856,60032
515.965,-541.322,60022
515.952,-541.787,60159
515.94,-542.253,60078
515.928,-542.719,60027
515.915,-543.185,60138
515.903,-543.65,60137
515.89,-544.116,60102
515.878,-544.582,60097
515.866,-545.048,60027
515.853,-545.514,60096
515.841,-545.979,60050
515.829,-546.445,60041
515.816,-546.911,60071
515.804,-547.377,60083
515.791,-547.843,60116
515.779,-548.309,59968
515.767,-548.775,60100
515.754,-549.241,60036
515.742,-549.707,60029
515.729,-550.173,59917
515.717,-550.639,60085
515.705,-551.105,60031
515.692,-551.572,60097
515.68,-552.038,60009
515.667,-552.504,60058
515.655,-552.97,60034
515.643,-553.436,59978
515.63,-553.903,60020
515.618,-554.369,60138
515.605,-554.835,60023
515.593,-555.302,60011
515.581,-555.768,60011
515.568,-556.234,60056
515.556,-556.701,60052
515.543,-557.167,60060
515.531,-557.633,60011
515.519,-558.1,60060
515.506,-558.566,60083
515.494,-559.033,60008
515.481,-559.499,59970
515.469,-559.966,60041
515.457,-560.432,60107
515.444,-560.899,59998
515.432,-561.366,60077
515.419,-561.832,60012
515.407,-562.299,60068
515.395,-562.766,60029
515.382,-563.232,59955
515.37,-563.699,59992
515.357,-564.166,59962
515.345,-564.633,60006
515.333,-565.099,60001
515.32,-565.566,59967
515.308,-566.033,59902
515.295,-566.5,60152
515.283,-566.967,60048
515.271,-567.434,59966
515.258,-567.901,59870
515.246,-568.367,60073
515.233,-568.834,59996
515.221,-569.301,60045
515.209,-569.768,60007
515.196,-570.236,60053
515.184,-570.703,60004
515.171,-571.17,60061
515.159,-571.637,60010
515.147,-572.104,59975
515.134,-572.571,60042
515.122,-573.038,60072
515.11,-573.505,59966
515.097,-573.973,60051
515.085,-574.44,60023
515.072,-574.907,59948
515.06,-575.374,59962
515.048,-575.842,60077
515.035,-576.309,59957
515.023,-576.776,60005
515.01,-577.244,60019
514.998,-577.711,59995
514.986,-578.179,59994
514.973,-578.646,59932
514.961,-579.113,60021
514.948,-579.581,60005
514.936,-580.048,60020
514.924,-580.516,59997
514.911,-580.984,59937
514.899,-581.451,60045
514.886,-581.919,60000
514.874,-582.386,59989
514.862,-582.854,60014
514.849,-583.322,60010
514.837,-583.789,60069
514.824,-584.257,59956
514.812,-584.725,60090
514.8,-585.193,59986
514.787,-585.66,60035
514.775,-586.128,60046
514.762,-586.596,59963
514.75,-587.064,60073
514.738,-587.532,60029
514.725,-588,60009
514.713,-588.467,60013
514.7,-588.935,59959
514.688,-589.403,60025
514.676,-589.871,60001
514.663,-590.339,60003
514.651,-590.807,60003
514.638,-591.275,60041
514.626,-591.743,60042
514.614,-592.212,59986
514.601,-592.68,59994
514.589,-593.148,60019
514.576,-593.616,59969
514.564,-594.084,59931
514.552,-594.552,60048
514.539,-595.021,60082
514.527,-595.489,60070
514.514,-595.957,59984
514.502,-596.425,60066
514.49,-596.894,60045
514.477,-597.362,60051
514.465,-597.83,60019
514.452,-598.299,60055
514.44,-598.767,60007
514.428,-599.236,60069
514.415,-599.704,60024
514.403,-600.173,60048
514.39,-600.641,60063
514.378,-601.11,60013
514.366,-601.578,59949
514.353,-602.047,60053
514.341,-602.515,59944
514.329,-602.984,59999
514.316,-603.453,59958
514.304,-603.921,60013
514.291,-604.39,60026
514.279,-604.859,59990
514.267,-605.327,60083
514.254,-605.796,60056
514.242,-606.265,59969
514.229,-606.734,60013
514.217,-607.202,60016
514.205,-607.671,60003
514.192,-608.14,60102
514.18,-608.609,60044
514.167,-609.078,60026
514.155,-609.547,60028
514.143,-610.016,60049
514.13,-610.485,60027
514.118,-610.954,60038
514.105,-611.423,60043
514.093,-611.892,59950
514.081,-612.361,60002
514.068,-612.83,60059
514.056,-613.299,60037
514.043,-613.768,60044
514.031,-614.237,60012
514.019,-614.707,60027
514.006,-615.176,60098
513.994,-615.645,60080
513.981,-616.114,60028
513.969,-616.584,59993
513.957,-617.053,60022
513.944,-617.522,60044
513.932,-617.991,60084
513.919,-618.461,60041
513.907,-618.93,60102
513.895,-619.4,60063
513.882,-619.869,60008
513.87,-620.339,60069
513.857,-620.808,60036
513.845,-621.277,60062
513.833,-621.747,60056
513.82,-622.217,60038
513.808,-622.686,60065
513.795,-623.156,60037
513.783,-623.625,60127
513.771,-624.095,60110
513.758,-624.565,60070
513.746,-625.034,60029
513.733,-625.504,60055
513.721,-625.974,60047
513.709,-626.443,60063
513.696,-626.913,60019
513.684,-627.383,60018
513.671,-627.853,60036
513.659,-628.323,59955
513.647,-628.792,60024
513.634,-629.262,60030
513.622,-629.732,59994
513.61,-630.202,60032
513.597,-630.672,59993
513.585,-631.142,60041
513.572,-631.612,60044
513.56,-632.082,59972
513.548,-632.552,59937
513.535,-633.022,59979
513.523,-633.492,60003
513.51,-633.962,60011
513.498,-634.433,60046
513.486,-634.903,60029
513.473,-635.373,59963
513.461,-635.843,60060
513.448,-636.313,60118
513.436,-636.784,60025
513.424,-637.254,60032
513.411,-637.724,60051
513.399,-638.194,60042
513.386,-638.665,59986
513.374,-639.135,60008
513.362,-639.605,60069
513.349,-640.076,59953
513.337,-640.546,60055
513.324,-641.017,60054
513.312,-641.487,60087
513.3,-641.958,60039
513.287,-642.428,59956
513.275,-642.899,60002
513.262,-643.369,59978
513.25,-643.84,60067
513.238,-644.311,60050
513.225,-644.781,60025
513.213,-645.252,59973
513.2,-645.722,60025
513.188,-646.193,60060
513.176,-646.664,60000
513.163,-647.135,60019
513.151,-647.605,60003
513.138,-648.076,60054
513.126,-648.547,60072
513.114,-649.018,60096
513.101,-649.489,60038
513.089,-649.96,59994
513.076,-650.43,59983
513.064,-650.901,60049
513.052,-651.372,59984
513.039,-651.843,60005
513.027,-652.314,60061
513.014,-652.785,60059
513.002,-653.256,59979
512.99,-653.727,60005
512.977,-654.199,59973
512.965,-654.67,59973
512.952,-655.141,59915
512.94,-655.612,60014
512.928,-656.083,60012
512.915,-656.554,60062
512.903,-657.026,59999
512.89,-657.497,59908
512.878,-657.968,60016
512.866,-658.439,59964
512.853,-658.911,60083
512.841,-659.382,60011
512.829,-659.853,60021
512.816,-660.325,60031
512.804,-660.796,60049
512.791,-661.268,60018
512.779,-661.739,60064
512.767,-662.21,59991
512.754,-662.682,60008
512.742,-663.153,59980
512.729,-663.625,59975
512.717,-664.097,60002
512.705,-664.568,60057
512.692,-665.04,59948
512.68,-665.511,60046
512.667,-665.983,59979
512.655,-666.455,59926
512.643,-666.926,60000
512.63,-667.398,59988
512.618,-667.87,60064
512.605,-668.342,60044
512.593,-668.813,59957
512.581,-669.285,60090
512.568,-669.757,60000
512.556,-670.229,60010
512.543,-670.701,60072
512.531,-671.173,60013
512.519,-671.645,60020
512.506,-672.117,60072
512.494,-672.589,60035
512.481,-673.061,59946
512.469,-673.533,59996
512.457,-674.005,60100
512.444,-674.477,59923
512.432,-674.949,60052
512.419,-675.421,60058
512.407,-675.893,60002
512.395,-676.365,60080
512.382,-676.837,59978
512.37,-677.31,60038
512.357,-677.782,59997
512.345,-678.254,60051
512.333,-678.726,60021
512.32,-679.199,60061
512.308,-679.671,60031
512.295,-680.143,59983
512.283,-680.616,60020
512.271,-681.088,60015
512.258,-681.56,59926
512.246,-682.033,60030
512.233,-682.505,60069
512.221,-682.978,60039
512.209,-683.45,60020
512.196,-683.923,59938
512.184,-684.395,60065
512.171,-684.868,60047
512.159,-685.341,59995
512.147,-685.813,59984
512.134,-686.286,60018
512.122,-686.758,59970
512.11,-687.231,60045
512.097,-687.704,59987
512.085,-688.177,60045
512.072,-688.649,59986
512.06,-689.122,59982
512.048,-689.595,60021
512.035,-690.068,59936
512.023,-690.541,60120
512.01,-691.013,59987
511.998,-691.486,60063
511.986,-691.959,60069
511.973,-692.432,60030
511.961,-692.905,60018
511.948,-693.378,60043
511.936,-693.851,60005
511.924,-694.324,60005
511.911,-694.797,60094
511.899,-695.27,60022
511.886,-695.743,60043
511.874,-696.216,60053
511.862,-696.69,59922
511.849,-697.163,59998
511.837,-697.636,59974
511.824,-698.109,60040
511.812,-698.582,60019
511.8,-699.056,59981
511.787,-699.529,60041
511.775,-700.002,60067
511.762,-700.476,59952
511.75,-700.949,60040
511.738,-701.422,59954
511.725,-701.896,59973
511.713,-702.369,60033
511.7,-702.843,59950
511.688,-703.316,59982
511.676,-703.789,59983
511.663,-704.263,60001
511.651,-704.737,59999
511.638,-705.21,59966
511.626,-705.684,60033
511.614,-706.157,59989
511.601,-706.631,59982
511.589,-707.105,59982
511.576,-707.578,59973
511.564,-708.052,59896
511.552,-708.526,60024
511.539,-708.999,59909
511.527,-709.473,59984
511.514,-709.947,60056
511.502,-710.421,59997
511.49,-710.894,59973
511.477,-711.368,59996
511.465,-711.842,60013
511.452,-712.316,60033
511.44,-712.79,60040
511.428,-713.264,60003
511.415,-713.738,59957
511.403,-714.212,59989
511.39,-714.686,59988
511.378,-715.16,59968
511.366,-715.634,59996
511.353,-716.108,59967
511.341,-716.582,60004
511.329,-717.056,59951
511.316,-717.531,60001
511.304,-718.005,59964
511.291,-718.479,60041
511.279,-718.953,60025
511.267,-719.427,60008
511.254,-719.902,59986
511.242,-720.376,59972
511.229,-720.85,60019
511.217,-721.325,60030
511.205,-721.799,60016
511.192,-722.273,59956
511.18,-722.748,59971
511.167,-723.222,60031
511.155,-723.697,60005
511.143,-724.171,59972
511.13,-724.646,59931
511.118,-725.12,59990
511.105,-725.595,60051
511.093,-726.069,60047
511.081,-726.544,60026
511.068,-727.018,59989
511.056,-727.493,59978
511.043,-727.968,59941
511.031,-728.442,59965
511.019,-728.917,59935
511.006,-729.392,60004
510.994,-729.867,60023
510.981,-730.341,60045
510.969,-730.816,59977
510.957,-731.291,59976
510.944,-731.766,59919
510.932,-732.241,59946
510.919,-732.715,59935
510.907,-733.19,59953
510.895,-733.665,60050
510.882,-734.14,59994
510.87,-734.615,60069
510.857,-735.09,59918
510.845,-735.565,60014
510.833,-736.04,59940
510.82,-736.515,60016
510.808,-736.991,59991
510.795,-737.466,59986
510.783,-737.941,59998
510.771,-738.416,60036
510.758,-738.891,59946
510.746,-739.366,60108
510.733,-739.842,59983
510.721,-740.317,60085
510.709,-740.792,60017
510.696,-741.267,60006
510.684,-741.743,60038
510.671,-742.218,60016
510.659,-742.693,60057
510.647,-743.169,59932
510.634,-743.644,59952
510.622,-744.12,60115
510.61,-744.595,59949
510.597,-745.071,60008
510.585,-745.546,59856
510.572,-746.022,59984
510.56,-746.497,60049
510.548,-746.973,60018
510.535,-747.448,60011
510.523,-747.924,59908
510.51,-748.4,60042
510.498,-748.875,59968
510.486,-749.351,59896
510.473,-749.827,59943
510.461,-750.303,59946
510.448,-750.778,60005
510.436,-751.254,59991
510.424,-751.73,59923
510.411,-752.206,59990
510.399,-752.682,60070
510.386,-753.157,60013
510.374,-753.633,59981
510.362,-754.109,59966
510.349,-754.585,59981
510.337,-755.061,60044
510.324,-755.537,60015
510.312,-756.013,60018
510.3,-756.489,60019
510.287,-756.965,60073
510.275,-757.441,59995
510.262,-757.918,60011
510.25,-758.394,60106
510.238,-758.87,60013
510.225,-759.346,59974
510.213,-759.822,60020
510.2,-760.298,59991
510.188,-760.775,59987
510.176,-761.251,59890
510.163,-761.727,59985
510.151,-762.204,60049
510.138,-762.68,60008
510.126,-763.156,60059
510.114,-763.633,59966
510.101,-764.109,60015
510.089,-764.586,60045
510.076,-765.062,59947
510.064,-765.538,60040
510.052,-766.015,60072
510.039,-766.491,60006
510.027,-766.968,59898
510.014,-767.445,60061
510.002,-767.921,60022
509.99,-768.398,59918
509.977,-768.874,59979
509.965,-769.351,59995
509.952,-769.828,60068
509.94,-770.305,59995
509.928,-770.781,60076
509.915,-771.258,59984
509.903,-771.735,59952
509.89,-772.212,60026
509.878,-772.688,60023
509.866,-773.165,60019
509.853,-773.642,60019
509.841,-774.119,59989
509.829,-774.596,60034
509.816,-775.073,60049
509.804,-775.55,60069
509.791,-776.027,59988
509.779,-776.504,60072
509.767,-776.981,60001
509.754,-777.458,60030
509.742,-777.935,59980
509.729,-778.412,59998
509.717,-778.889,60040
509.705,-779.366,59964
509.692,-779.844,60013
509.68,-780.321,60019
509.667,-780.798,60009
509.655,-781.275,59991
509.643,-781.753,60042
509.63,-782.23,60002
509.618,-782.707,59966
509.605,-783.185,60026
509.593,-783.662,60079
509.581,-784.139,59988
509.568,-784.617,59982
509.556,-785.094,60039
509.543,-785.572,59963
509.531,-786.049,59953
509.519,-786.527,60043
509.506,-787.004,59997
509.494,-787.482,60039
509.481,-787.959,60036
509.469,-788.437,60058
509.457,-788.914,60108
509.444,-789.392,60058
509.432,-789.87,59924
509.419,-790.347,60053
509.407,-790.825,60027
509.395,-791.303,59953
509.382,-791.781,60010
509.37,-792.258,60016
509.357,-792.736,59965
509.345,-793.214,59995
509.333,-793.692,59960
509.32,-794.17,59980
509.308,-794.648,59944
509.295,-795.126,59971
509.283,-795.604,60012
509.271,-796.082,59987
509.258,-796.559,59975
509.246,-797.038,60002
509.233,-797.516,59933
509.221,-797.994,59902
509.209,-798.472,59981
509.196,-798.95,60087
509.184,-799.428,60028
509.171,-799.906,59969
509.159,-800.384,59991
509.147,-800.862,60067
509.134,-801.341,60035
509.122,-801.819,59952
509.11,-802.297,59986
509.097,-802.775,59966
509.085,-803.254,59997
509.072,-803.732,60017
509.06,-804.211,59994
509.048,-804.689,59965
509.035,-805.167,59997
509.023,-805.646,60053
509.01,-806.124,59960
508.998,-806.603,60068
508.986,-807.081,60029
508.973,-807.56,60053
508.961,-808.038,59985
508.948,-808.517,59936
508.936,-808.995,59967
508.924,-809.474,59960
508.911,-809.953,60001
508.899,-810.431,59921
508.886,-810.91,59953
508.874,-811.389,59960
508.862,-811.867,60009
508.849,-812.346,60003
508.837,-812.825,60047
508.824,-813.304,59987
508.812,-813.783,59969
508.8,-814.262,59928
508.787,-814.74,60013
508.775,-815.219,59942
508.762,-815.698,59936
508.75,-816.177,60045
508.738,-816.656,60091
508.725,-817.135,59933
508.713,-817.614,59994