File: tomke/20240809_Si_on_TiO2/20240809/raw_data/Si_onTiO2_40mA_30mW_30sec_5acc_517nm.txt
Wavelength(nm), Raman shift(cm^-1), Intensity(counts)
525.364,-194.586,62656
525.301,-196.846,63044
525.239,-199.106,62849
525.177,-201.367,62825
525.114,-203.629,63070
525.052,-205.891,63024
524.99,-208.154,63017
524.927,-210.417,62880
524.865,-212.681,63020
524.802,-214.945,63019
524.74,-217.21,62956
524.678,-219.475,62941
524.615,-221.741,62867
524.553,-224.008,63174
524.491,-226.275,63047
524.428,-228.542,63062
524.366,-230.81,62981
524.304,-233.079,62947
524.241,-235.348,62908
524.179,-237.618,63021
524.116,-239.888,63115
524.054,-242.159,63091
523.992,-244.43,63113
523.929,-246.702,63176
523.867,-248.974,63106
523.805,-251.247,63196
523.742,-253.52,63295
523.68,-255.794,63361
523.617,-258.069,63206
523.555,-260.344,63464
523.493,-262.62,63599
523.43,-264.896,63848
523.368,-267.173,63995
523.306,-269.45,64712
523.243,-271.728,65306
523.181,-274.006,66112
523.119,-276.285,66448
523.056,-278.564,67111
522.994,-280.844,67677
522.931,-283.125,67819
522.869,-285.406,68591
522.807,-287.688,68688
522.744,-289.97,68747
522.682,-292.252,69081
522.62,-294.536,69008
522.557,-296.82,69032
522.495,-299.104,69065
522.432,-301.389,68786
522.37,-303.674,68681
522.308,-305.96,68731
522.245,-308.247,68546
522.183,-310.534,68388
522.121,-312.821,68373
522.058,-315.11,68503
521.996,-317.398,68227
521.933,-319.687,68195
521.871,-321.977,68409
521.809,-324.268,68115
521.746,-326.559,68059
521.684,-328.85,68266
521.622,-331.142,67889
521.559,-333.434,67942
521.497,-335.728,67785
521.435,-338.021,67862
521.372,-340.315,67877
521.31,-342.61,67857
521.247,-344.905,67806
521.185,-347.201,67510
521.123,-349.498,67446
521.06,-351.795,67516
520.998,-354.092,67583
520.936,-356.39,67251
520.873,-358.689,67385
520.811,-360.988,67286
520.748,-363.287,67101
520.686,-365.588,67292
520.624,-367.889,67230
520.561,-370.19,67063
520.499,-372.492,66980
520.437,-374.794,67042
520.374,-377.097,66891
520.312,-379.401,66927
520.249,-381.705,66770
520.187,-384.009,66942
520.125,-386.315,66758
520.062,-388.62,66982
520.0,-390.927,66714
519.938,-393.234,66663
519.875,-395.541,66698
519.813,-397.849,66756
519.751,-400.158,66508
519.688,-402.467,66554
519.626,-404.776,66615
519.563,-407.086,66590
519.501,-409.397,66459
519.439,-411.708,66421
519.376,-414.02,66399
519.314,-416.333,66333
519.252,-418.646,66293
519.189,-420.959,66414
519.127,-423.273,66492
519.064,-425.588,66140
519.002,-427.903,66051
518.94,-430.219,66014
518.877,-432.535,65922
518.815,-434.852,66013
518.753,-437.169,65970
518.69,-439.487,65845
518.628,-441.806,65606
518.565,-444.125,65648
518.503,-446.445,65714
518.441,-448.765,65577
518.378,-451.086,65491
518.316,-453.407,65635
518.254,-455.729,65491
518.191,-458.051,65664
518.129,-460.374,65444
518.067,-462.698,65503
518.004,-465.022,65394
517.942,-467.347,65662
517.879,-469.672,65556
517.817,-471.998,65744
517.755,-474.324,65686
517.692,-476.651,65606
517.63,-478.978,65833
517.568,-481.306,66025
517.505,-483.635,66128
517.443,-485.964,66552
517.38,-488.294,66834
517.318,-490.624,67242
517.256,-492.955,68126
517.193,-495.286,69569
517.131,-497.618,71668
517.069,-499.951,73866
517.006,-502.284,75448
516.944,-504.618,75051
516.881,-506.952,72802
516.819,-509.287,70315
516.757,-511.622,68584
516.694,-513.958,67198
516.632,-516.294,66479
516.57,-518.631,66239
516.507,-520.969,65773
516.445,-523.307,65450
516.383,-525.646,65180
516.32,-527.985,65351
516.258,-530.325,65014
516.195,-532.665,65105
516.133,-535.006,65087
516.071,-537.348,64875
516.008,-539.69,64772
515.946,-542.033,64664
515.884,-544.376,64637
515.821,-546.72,64817
515.759,-549.064,64663
515.696,-551.409,64757
515.634,-553.755,64736
515.572,-556.101,64703
515.509,-558.448,64441
515.447,-560.795,64486
515.385,-563.143,64590
515.322,-565.491,64463
515.26,-567.84,64464
515.198,-570.189,64484
515.135,-572.539,64314
515.073,-574.89,64660
515.01,-577.241,64553
514.948,-579.593,64581
514.886,-581.945,64461
514.823,-584.298,64478
514.761,-586.652,64640
514.699,-589.006,64397
514.636,-591.361,64406
514.574,-593.716,64461
514.511,-596.072,64408
514.449,-598.428,64481
514.387,-600.785,64569
514.324,-603.142,64542
514.262,-605.5,64325
514.2,-607.859,64432
514.137,-610.218,64295
514.075,-612.578,64505
514.012,-614.938,64450
513.95,-617.299,64362
513.888,-619.661,64239
513.825,-622.023,64154
513.763,-624.385,64337
513.701,-626.749,64245
513.638,-629.112,63911
513.576,-631.477,64315
513.514,-633.842,64321
513.451,-636.207,64167
513.389,-638.573,64226
513.326,-640.94,64181
513.264,-643.307,64042
513.202,-645.675,63957
513.139,-648.043,64183
513.077,-650.412,64116
513.015,-652.782,63901
512.952,-655.152,63906
512.89,-657.523,64011
512.827,-659.894,63881
512.765,-662.266,64112
512.703,-664.638,64088
512.64,-667.011,63792
512.578,-669.385,63975
512.516,-671.759,64019
512.453,-674.134,64068
512.391,-676.509,63870
512.328,-678.885,63839
512.266,-681.261,63924
512.204,-683.638,63644
512.141,-686.016,63833
512.079,-688.394,63667
512.017,-690.773,63737
511.954,-693.152,63660
511.892,-695.532,63774
511.83,-697.913,63671
511.767,-700.294,63695
511.705,-702.676,63660
511.642,-705.058,63561
511.58,-707.441,63545
511.518,-709.824,63732
511.455,-712.208,63555
511.393,-714.593,63530
511.331,-716.978,63690
511.268,-719.364,63555
511.206,-721.75,63414
511.143,-724.137,63573
511.081,-726.525,63619
511.019,-728.913,63518
510.956,-731.301,63522
510.894,-733.691,63467
510.832,-736.08,63476
510.769,-738.471,63539
510.707,-740.862,63585
510.644,-743.253,63445
510.582,-745.646,63394
510.52,-748.038,63304
510.457,-750.432,63545
510.395,-752.826,63304
510.333,-755.22,63312
510.27,-757.615,63244
510.208,-760.011,63377
510.146,-762.407,63374
510.083,-764.804,63394
510.021,-767.201,63237
509.958,-769.599,63312
509.896,-771.998,63158
509.834,-774.397,63265
509.771,-776.797,63302
509.709,-779.197,63322
509.647,-781.598,63268
509.584,-784,63227
509.522,-786.402,63198
509.459,-788.805,63111
509.397,-791.208,63029
509.335,-793.612,63172
509.272,-796.016,63014
509.21,-798.421,63088
509.148,-800.827,63028
509.085,-803.233,63159
509.023,-805.64,63114
508.96,-808.048,63073
508.898,-810.456,63001
508.836,-812.864,62948
508.773,-815.274,63060
508.711,-817.683,63087
525.364,-194.586,62557
525.301,-196.846,62950
525.239,-199.106,62850
525.177,-201.367,62845
525.114,-203.629,62834
525.052,-205.891,62792
524.99,-208.154,63001
524.927,-210.417,62889
524.865,-212.681,63087
524.802,-214.945,63021
524.74,-217.21,62867
524.678,-219.475,62889
524.615,-221.741,63086
524.553,-224.008,63028
524.491,-226.275,63009
524.428,-228.542,63094
524.366,-230.81,63121
524.304,-233.079,63152
524.241,-235.348,63102
524.179,-237.618,63029
524.116,-239.888,63100
524.054,-242.159,63025
523.992,-244.43,62999
523.929,-246.702,63154
523.867,-248.974,63085
523.805,-251.247,63143
523.742,-253.52,63245
523.68,-255.794,63237
523.617,-258.069,63293
523.555,-260.344,63443
523.493,-262.62,63663
523.43,-264.896,63663
523.368,-267.173,64181
523.306,-269.45,64642
523.243,-271.728,65550
523.181,-274.006,66067
523.119,-276.285,66440
523.056,-278.564,67093
522.994,-280.844,67598
522.931,-283.125,68042
522.869,-285.406,68531
522.807,-287.688,68729
522.744,-289.97,69133
522.682,-292.252,69001
522.62,-294.536,69045
522.557,-296.82,69071
522.495,-299.104,69023
522.432,-301.389,68778
522.37,-303.674,68837
522.308,-305.96,68641
522.245,-308.247,68676
522.183,-310.534,68621
522.121,-312.821,68756
522.058,-315.11,68544
521.996,-317.398,68435
521.933,-319.687,68234
521.871,-321.977,68406
521.809,-324.268,68356
521.746,-326.559,68002
521.684,-328.85,67979
521.622,-331.142,68109
521.559,-333.434,67833
521.497,-335.728,67911
521.435,-338.021,67807
521.372,-340.315,67991
521.31,-342.61,67958
521.247,-344.905,67981
521.185,-347.201,67697
521.123,-349.498,67626
521.06,-351.795,67451
520.998,-354.092,67616
520.936,-356.39,67701
520.873,-358.689,67497
520.811,-360.988,67359
520.748,-363.287,67459
520.686,-365.588,67262
520.624,-367.889,67344
520.561,-370.19,67020
520.499,-372.492,67378
520.437,-374.794,67035
520.374,-377.097,66874
520.312,-379.401,67107
520.249,-381.705,66912
520.187,-384.009,67017
520.125,-386.315,66923
520.062,-388.62,66937
520.0,-390.927,66789
519.938,-393.234,66741
519.875,-395.541,66650
519.813,-397.849,66620
519.751,-400.158,66941
519.688,-402.467,66805
519.626,-404.776,66500
519.563,-407.086,66695
519.501,-409.397,66418
519.439,-411.708,66477
519.376,-414.02,66469
519.314,-416.333,66298
519.252,-418.646,66380
519.189,-420.959,66479
519.127,-423.273,66377
519.064,-425.588,66450
519.002,-427.903,66136
518.94,-430.219,66063
518.877,-432.535,66169
518.815,-434.852,66135
518.753,-437.169,65839
518.69,-439.487,65942
518.628,-441.806,65668
518.565,-444.125,65530
518.503,-446.445,65743
518.441,-448.765,65702
518.378,-451.086,65729
518.316,-453.407,65503
518.254,-455.729,65649
518.191,-458.051,65733
518.129,-460.374,65584
518.067,-462.698,65759
518.004,-465.022,65737
517.942,-467.347,65610
517.879,-469.672,65542
517.817,-471.998,65568
517.755,-474.324,65700
517.692,-476.651,65798
517.63,-478.978,65912
517.568,-481.306,66107
517.505,-483.635,66175
517.443,-485.964,66533
517.38,-488.294,66681
517.318,-490.624,67446
517.256,-492.955,68238
517.193,-495.286,69621
517.131,-497.618,71557
517.069,-499.951,74187
517.006,-502.284,75726
516.944,-504.618,75116
516.881,-506.952,72744
516.819,-509.287,70503
516.757,-511.622,68533
516.694,-513.958,67350
516.632,-516.294,66717
516.57,-518.631,66203
516.507,-520.969,65832
516.445,-523.307,65565
516.383,-525.646,65340
516.32,-527.985,65168
516.258,-530.325,65086
516.195,-532.665,65200
516.133,-535.006,65044
516.071,-537.348,64801
516.008,-539.69,64847
515.946,-542.033,64709
515.884,-544.376,64712
515.821,-546.72,64703
515.759,-549.064,64631
515.696,-551.409,64795
515.634,-553.755,64515
515.572,-556.101,64741
515.509,-558.448,64600
515.447,-560.795,64628
515.385,-563.143,64607
515.322,-565.491,64483
515.26,-567.84,64571
515.198,-570.189,64546
515.135,-572.539,64674
515.073,-574.89,64549
515.01,-577.241,64604
514.948,-579.593,64694
514.886,-581.945,64625
514.823,-584.298,64578
514.761,-586.652,64549
514.699,-589.006,64590
514.636,-591.361,64405
514.574,-593.716,64465
514.511,-596.072,64331
514.449,-598.428,64596
514.387,-600.785,64691
514.324,-603.142,64420
514.262,-605.5,64223
514.2,-607.859,64367
514.137,-610.218,64426
514.075,-612.578,64285
514.012,-614.938,64185
513.95,-617.299,64500
513.888,-619.661,64252
513.825,-622.023,64497
513.763,-624.385,64153
513.701,-626.749,64319
513.638,-629.112,64248
513.576,-631.477,64234
513.514,-633.842,64240
513.451,-636.207,64256
513.389,-638.573,64449
513.326,-640.94,64115
513.264,-643.307,64161
513.202,-645.675,64152
513.139,-648.043,64290
513.077,-650.412,64089
513.015,-652.782,64255
512.952,-655.152,63966
512.89,-657.523,64054
512.827,-659.894,64031
512.765,-662.266,63889
512.703,-664.638,64044
512.64,-667.011,63852
512.578,-669.385,63976
512.516,-671.759,64018
512.453,-674.134,63965
512.391,-676.509,63927
512.328,-678.885,63891
512.266,-681.261,63709
512.204,-683.638,63911
512.141,-686.016,63952
512.079,-688.394,63778
512.017,-690.773,63715
511.954,-693.152,63639
511.892,-695.532,63659
511.83,-697.913,63632
511.767,-700.294,63697
511.705,-702.676,63609
511.642,-705.058,63642
511.58,-707.441,63772
511.518,-709.824,63655
511.455,-712.208,63571
511.393,-714.593,63681
511.331,-716.978,63595
511.268,-719.364,63603
511.206,-721.75,63698
511.143,-724.137,63777
511.081,-726.525,63438
511.019,-728.913,63510
510.956,-731.301,63570
510.894,-733.691,63646
510.832,-736.08,63545
510.769,-738.471,63493
510.707,-740.862,63401
510.644,-743.253,63489
510.582,-745.646,63399
510.52,-748.038,63594
510.457,-750.432,63354
510.395,-752.826,63331
510.333,-755.22,63357
510.27,-757.615,63309
510.208,-760.011,63082
510.146,-762.407,63370
510.083,-764.804,63306
510.021,-767.201,63346
509.958,-769.599,63223
509.896,-771.998,63136
509.834,-774.397,63273
509.771,-776.797,63404
509.709,-779.197,63188
509.647,-781.598,63208
509.584,-784,63222
509.522,-786.402,63252
509.459,-788.805,63243
509.397,-791.208,63172
509.335,-793.612,63343
509.272,-796.016,63244
509.21,-798.421,63260
509.148,-800.827,63187
509.085,-803.233,63150
509.023,-805.64,63050
508.96,-808.048,63198
508.898,-810.456,63082
508.836,-812.864,63058
508.773,-815.274,62930
508.711,-817.683,62979
525.364,-194.586,62512
525.301,-196.846,62858
525.239,-199.106,63007
525.177,-201.367,62817
525.114,-203.629,62861
525.052,-205.891,62802
524.99,-208.154,62933
524.927,-210.417,62837
524.865,-212.681,62907
524.802,-214.945,62827
524.74,-217.21,62990
524.678,-219.475,62891
524.615,-221.741,63061
524.553,-224.008,63010
524.491,-226.275,62963
524.428,-228.542,63042
524.366,-230.81,62910
524.304,-233.079,62992
524.241,-235.348,63022
524.179,-237.618,63160
524.116,-239.888,67308
524.054,-242.159,62935
523.992,-244.43,63098
523.929,-246.702,63027
523.867,-248.974,63118
523.805,-251.247,63088
523.742,-253.52,63090
523.68,-255.794,64515
523.617,-258.069,67153
523.555,-260.344,67283
523.493,-262.62,65970
523.43,-264.896,67511
523.368,-267.173,67519
523.306,-269.45,64633
523.243,-271.728,65172
523.181,-274.006,65926
523.119,-276.285,66615
523.056,-278.564,66998
522.994,-280.844,67879
522.931,-283.125,67920
522.869,-285.406,68342
522.807,-287.688,68665
522.744,-289.97,68752
522.682,-292.252,69083
522.62,-294.536,68927
522.557,-296.82,68944
522.495,-299.104,69123
522.432,-301.389,68610
522.37,-303.674,68683
522.308,-305.96,68613
522.245,-308.247,68630
522.183,-310.534,68340
522.121,-312.821,68418
522.058,-315.11,68462
521.996,-317.398,68167
521.933,-319.687,68235
521.871,-321.977,68111
521.809,-324.268,68112
521.746,-326.559,68160
521.684,-328.85,68152
521.622,-331.142,68096
521.559,-333.434,67772
521.497,-335.728,67861
521.435,-338.021,67782
521.372,-340.315,67845
521.31,-342.61,67530
521.247,-344.905,67698
521.185,-347.201,67677
521.123,-349.498,67430
521.06,-351.795,67409
520.998,-354.092,67466
520.936,-356.39,67410
520.873,-358.689,67423
520.811,-360.988,67227
520.748,-363.287,67305
520.686,-365.588,67456
520.624,-367.889,67202
520.561,-370.19,67109
520.499,-372.492,67164
520.437,-374.794,66827
520.374,-377.097,66756
520.312,-379.401,66940
520.249,-381.705,66905
520.187,-384.009,66890
520.125,-386.315,66689
520.062,-388.62,66630
520.0,-390.927,66682
519.938,-393.234,66868
519.875,-395.541,66600
519.813,-397.849,66716
519.751,-400.158,66603
519.688,-402.467,66610
519.626,-404.776,66675
519.563,-407.086,66432
519.501,-409.397,66413
519.439,-411.708,66422
519.376,-414.02,66387
519.314,-416.333,66380
519.252,-418.646,66236
519.189,-420.959,66233
519.127,-423.273,66193
519.064,-425.588,66200
519.002,-427.903,66031
518.94,-430.219,65894
518.877,-432.535,65815
518.815,-434.852,66105
518.753,-437.169,65818
518.69,-439.487,65764
518.628,-441.806,65629
518.565,-444.125,65473
518.503,-446.445,65472
518.441,-448.765,65580
518.378,-451.086,65593
518.316,-453.407,65610
518.254,-455.729,65472
518.191,-458.051,65519
518.129,-460.374,65429
518.067,-462.698,65463
518.004,-465.022,65285
517.942,-467.347,65718
517.879,-469.672,65492
517.817,-471.998,65630
517.755,-474.324,65753
517.692,-476.651,65660
517.63,-478.978,65705
517.568,-481.306,65790
517.505,-483.635,65953
517.443,-485.964,66200
517.38,-488.294,66694
517.318,-490.624,67338
517.256,-492.955,68377
517.193,-495.286,69565
517.131,-497.618,71359
517.069,-499.951,73988
517.006,-502.284,75537
516.944,-504.618,74947
516.881,-506.952,72943
516.819,-509.287,70407
516.757,-511.622,68525
516.694,-513.958,67359
516.632,-516.294,66619
516.57,-518.631,66209
516.507,-520.969,65558
516.445,-523.307,65485
516.383,-525.646,65354
516.32,-527.985,65017
516.258,-530.325,65156
516.195,-532.665,64992
516.133,-535.006,64993
516.071,-537.348,64937
516.008,-539.69,64640
515.946,-542.033,64881
515.884,-544.376,64697
515.821,-546.72,64915
515.759,-549.064,64488
515.696,-551.409,64561
515.634,-553.755,64646
515.572,-556.101,64452
515.509,-558.448,64664
515.447,-560.795,64446
515.385,-563.143,64305
515.322,-565.491,64454
515.26,-567.84,64597
515.198,-570.189,64459
515.135,-572.539,64463
515.073,-574.89,64261
515.01,-577.241,64475
514.948,-579.593,64499
514.886,-581.945,64464
514.823,-584.298,64375
514.761,-586.652,64466
514.699,-589.006,64490
514.636,-591.361,64499
514.574,-593.716,64491
514.511,-596.072,64639
514.449,-598.428,64512
514.387,-600.785,64512
514.324,-603.142,64441
514.262,-605.5,64211
514.2,-607.859,64442
514.137,-610.218,64395
514.075,-612.578,64251
514.012,-614.938,64250
513.95,-617.299,64321
513.888,-619.661,64145
513.825,-622.023,64334
513.763,-624.385,64119
513.701,-626.749,64206
513.638,-629.112,64201
513.576,-631.477,64136
513.514,-633.842,64145
513.451,-636.207,64085
513.389,-638.573,64187
513.326,-640.94,64021
513.264,-643.307,64018
513.202,-645.675,64049
513.139,-648.043,64116
513.077,-650.412,64000
513.015,-652.782,64091
512.952,-655.152,64045
512.89,-657.523,64116
512.827,-659.894,63926
512.765,-662.266,63879
512.703,-664.638,63961
512.64,-667.011,63965
512.578,-669.385,63822
512.516,-671.759,63905
512.453,-674.134,63859
512.391,-676.509,63753
512.328,-678.885,63896
512.266,-681.261,63799
512.204,-683.638,63924
512.141,-686.016,63598
512.079,-688.394,63573
512.017,-690.773,63724
511.954,-693.152,63681
511.892,-695.532,63607
511.83,-697.913,63747
511.767,-700.294,63574
511.705,-702.676,63471
511.642,-705.058,63452
511.58,-707.441,63546
511.518,-709.824,63612
511.455,-712.208,63547
511.393,-714.593,63465
511.331,-716.978,63633
511.268,-719.364,63525
511.206,-721.75,63439
511.143,-724.137,63455
511.081,-726.525,63418
511.019,-728.913,63351
510.956,-731.301,63431
510.894,-733.691,63453
510.832,-736.08,63288
510.769,-738.471,63313
510.707,-740.862,63394
510.644,-743.253,63301
510.582,-745.646,63344
510.52,-748.038,63328
510.457,-750.432,63217
510.395,-752.826,63383
510.333,-755.22,63312
510.27,-757.615,63203
510.208,-760.011,63277
510.146,-762.407,63288
510.083,-764.804,63159
510.021,-767.201,63244
509.958,-769.599,63279
509.896,-771.998,63255
509.834,-774.397,63325
509.771,-776.797,63213
509.709,-779.197,63223
509.647,-781.598,63206
509.584,-784,63236
509.522,-786.402,63253
509.459,-788.805,63170
509.397,-791.208,63226
509.335,-793.612,63211
509.272,-796.016,62998
509.21,-798.421,63083
509.148,-800.827,63186
509.085,-803.233,63200
509.023,-805.64,63007
508.96,-808.048,62984
508.898,-810.456,63018
508.836,-812.864,62830
508.773,-815.274,63149
508.711,-817.683,62910
525.364,-194.586,62583
525.301,-196.846,62822
525.239,-199.106,62918
525.177,-201.367,62966
525.114,-203.629,62859
525.052,-205.891,63035
524.99,-208.154,62893
524.927,-210.417,62954
524.865,-212.681,63039
524.802,-214.945,63175
524.74,-217.21,63043
524.678,-219.475,62994
524.615,-221.741,63114
524.553,-224.008,63094
524.491,-226.275,63087
524.428,-228.542,67859
524.366,-230.81,63001
524.304,-233.079,63060
524.241,-235.348,63090
524.179,-237.618,63104
524.116,-239.888,63091
524.054,-242.159,63033
523.992,-244.43,63103
523.929,-246.702,63000
523.867,-248.974,63191
523.805,-251.247,63047
523.742,-253.52,63318
523.68,-255.794,63202
523.617,-258.069,63389
523.555,-260.344,63496
523.493,-262.62,63591
523.43,-264.896,63903
523.368,-267.173,64062
523.306,-269.45,64689
523.243,-271.728,65394
523.181,-274.006,65825
523.119,-276.285,66532
523.056,-278.564,67312
522.994,-280.844,67855
522.931,-283.125,68163
522.869,-285.406,68524
522.807,-287.688,68824
522.744,-289.97,68961
522.682,-292.252,69239
522.62,-294.536,69292
522.557,-296.82,69106
522.495,-299.104,69271
522.432,-301.389,69114
522.37,-303.674,69055
522.308,-305.96,69069
522.245,-308.247,68632
522.183,-310.534,68441
522.121,-312.821,68632
522.058,-315.11,68832
521.996,-317.398,68534
521.933,-319.687,68406
521.871,-321.977,68469
521.809,-324.268,68281
521.746,-326.559,68307
521.684,-328.85,68264
521.622,-331.142,68215
521.559,-333.434,68227
521.497,-335.728,67973
521.435,-338.021,68002
521.372,-340.315,67821
521.31,-342.61,67729
521.247,-344.905,67853
521.185,-347.201,68001
521.123,-349.498,67802
521.06,-351.795,67724
520.998,-354.092,67647
520.936,-356.39,67576
520.873,-358.689,67634
520.811,-360.988,67729
520.748,-363.287,67473
520.686,-365.588,67362
520.624,-367.889,67245
520.561,-370.19,67128
520.499,-372.492,67140
520.437,-374.794,67417
520.374,-377.097,67175
520.312,-379.401,67012
520.249,-381.705,67180
520.187,-384.009,67405
520.125,-386.315,67150
520.062,-388.62,66990
520.0,-390.927,66817
519.938,-393.234,67049
519.875,-395.541,66816
519.813,-397.849,66940
519.751,-400.158,66731
519.688,-402.467,66814
519.626,-404.776,66859
519.563,-407.086,66585
519.501,-409.397,66865
519.439,-411.708,66582
519.376,-414.02,66463
519.314,-416.333,66340
519.252,-418.646,66591
519.189,-420.959,66392
519.127,-423.273,66533
519.064,-425.588,66353
519.002,-427.903,66173
518.94,-430.219,66050
518.877,-432.535,65872
518.815,-434.852,65935
518.753,-437.169,66074
518.69,-439.487,65870
518.628,-441.806,65672
518.565,-444.125,65546
518.503,-446.445,65685
518.441,-448.765,65711
518.378,-451.086,65613
518.316,-453.407,65714
518.254,-455.729,65633
518.191,-458.051,65706
518.129,-460.374,65599
518.067,-462.698,65742
518.004,-465.022,65732
517.942,-467.347,65843
517.879,-469.672,65803
517.817,-471.998,65715
517.755,-474.324,65798
517.692,-476.651,65920
517.63,-478.978,66168
517.568,-481.306,66200
517.505,-483.635,66255
517.443,-485.964,66377
517.38,-488.294,66988
517.318,-490.624,67397
517.256,-492.955,68330
517.193,-495.286,69497
517.131,-497.618,71791
517.069,-499.951,74149
517.006,-502.284,75596
516.944,-504.618,75196
516.881,-506.952,72974
516.819,-509.287,70338
516.757,-511.622,68779
516.694,-513.958,67623
516.632,-516.294,66545
516.57,-518.631,66077
516.507,-520.969,65901
516.445,-523.307,65834
516.383,-525.646,65430
516.32,-527.985,65494
516.258,-530.325,65291
516.195,-532.665,65121
516.133,-535.006,65076
516.071,-537.348,65252
516.008,-539.69,64991
515.946,-542.033,65007
515.884,-544.376,64817
515.821,-546.72,64819
515.759,-549.064,64787
515.696,-551.409,64776
515.634,-553.755,64859
515.572,-556.101,64854
515.509,-558.448,64680
515.447,-560.795,64687
515.385,-563.143,64583
515.322,-565.491,64618
515.26,-567.84,64602
515.198,-570.189,64598
515.135,-572.539,64353
515.073,-574.89,64572
515.01,-577.241,64521
514.948,-579.593,64758
514.886,-581.945,64614
514.823,-584.298,64592
514.761,-586.652,64539
514.699,-589.006,64494
514.636,-591.361,64641
514.574,-593.716,64548
514.511,-596.072,64597
514.449,-598.428,64615
514.387,-600.785,64675
514.324,-603.142,64570
514.262,-605.5,64549
514.2,-607.859,64421
514.137,-610.218,64400
514.075,-612.578,64474
514.012,-614.938,64450
513.95,-617.299,64355
513.888,-619.661,64453
513.825,-622.023,64353
513.763,-624.385,64386
513.701,-626.749,64265
513.638,-629.112,64395
513.576,-631.477,64167
513.514,-633.842,64286
513.451,-636.207,64275
513.389,-638.573,64352
513.326,-640.94,64064
513.264,-643.307,64225
513.202,-645.675,64302
513.139,-648.043,64133
513.077,-650.412,64049
513.015,-652.782,64122
512.952,-655.152,64071
512.89,-657.523,64158
512.827,-659.894,64140
512.765,-662.266,64012
512.703,-664.638,64039
512.64,-667.011,63959
512.578,-669.385,64151
512.516,-671.759,64120
512.453,-674.134,64073
512.391,-676.509,63908
512.328,-678.885,63928
512.266,-681.261,63859
512.204,-683.638,63875
512.141,-686.016,63735
512.079,-688.394,63814
512.017,-690.773,63942
511.954,-693.152,63990
511.892,-695.532,63777
511.83,-697.913,63857
511.767,-700.294,63747
511.705,-702.676,63535
511.642,-705.058,63823
511.58,-707.441,63723
511.518,-709.824,63496
511.455,-712.208,63667
511.393,-714.593,63568
511.331,-716.978,63503
511.268,-719.364,63689
511.206,-721.75,63658
511.143,-724.137,63534
511.081,-726.525,63613
511.019,-728.913,63654
510.956,-731.301,63546
510.894,-733.691,63506
510.832,-736.08,63556
510.769,-738.471,63545
510.707,-740.862,63433
510.644,-743.253,63450
510.582,-745.646,63606
510.52,-748.038,63531
510.457,-750.432,63379
510.395,-752.826,63516
510.333,-755.22,63283
510.27,-757.615,63472
510.208,-760.011,63298
510.146,-762.407,63387
510.083,-764.804,63315
510.021,-767.201,63253
509.958,-769.599,63393
509.896,-771.998,63271
509.834,-774.397,63322
509.771,-776.797,63080
509.709,-779.197,63178
509.647,-781.598,63194
509.584,-784,63154
509.522,-786.402,63268
509.459,-788.805,63378
509.397,-791.208,63279
509.335,-793.612,63352
509.272,-796.016,63179
509.21,-798.421,63220
509.148,-800.827,63136
509.085,-803.233,63281
509.023,-805.64,63098
508.96,-808.048,63211
508.898,-810.456,62996
508.836,-812.864,63078
508.773,-815.274,63185
508.711,-817.683,63198
525.364,-194.586,62499
525.301,-196.846,63026
525.239,-199.106,62932
525.177,-201.367,62793
525.114,-203.629,62960
525.052,-205.891,62861
524.99,-208.154,62797
524.927,-210.417,62889
524.865,-212.681,62736
524.802,-214.945,62803
524.74,-217.21,63021
524.678,-219.475,62956
524.615,-221.741,62931
524.553,-224.008,63082
524.491,-226.275,62882
524.428,-228.542,62958
524.366,-230.81,62876
524.304,-233.079,62936
524.241,-235.348,62941
524.179,-237.618,62914
524.116,-239.888,63032
524.054,-242.159,63045
523.992,-244.43,63026
523.929,-246.702,62992
523.867,-248.974,63151
523.805,-251.247,63230
523.742,-253.52,63242
523.68,-255.794,63320
523.617,-258.069,63309
523.555,-260.344,63264
523.493,-262.62,63637
523.43,-264.896,63874
523.368,-267.173,64426
523.306,-269.45,64832
523.243,-271.728,65315
523.181,-274.006,65973
523.119,-276.285,66631
523.056,-278.564,67082
522.994,-280.844,67598
522.931,-283.125,68269
522.869,-285.406,75791
522.807,-287.688,68541
522.744,-289.97,68738
522.682,-292.252,69074
522.62,-294.536,69253
522.557,-296.82,68900
522.495,-299.104,69184
522.432,-301.389,68749
522.37,-303.674,68730
522.308,-305.96,68658
522.245,-308.247,68714
522.183,-310.534,68357
522.121,-312.821,68394
522.058,-315.11,68374
521.996,-317.398,68298
521.933,-319.687,68132
521.871,-321.977,68194
521.809,-324.268,68136
521.746,-326.559,68205
521.684,-328.85,68056
521.622,-331.142,68064
521.559,-333.434,67974
521.497,-335.728,67890
521.435,-338.021,67794
521.372,-340.315,68023
521.31,-342.61,67921
521.247,-344.905,67666
521.185,-347.201,67561
521.123,-349.498,67918
521.06,-351.795,67748
520.998,-354.092,67691
520.936,-356.39,67474
520.873,-358.689,67470
520.811,-360.988,67395
520.748,-363.287,67305
520.686,-365.588,67445
520.624,-367.889,67275
520.561,-370.19,67154
520.499,-372.492,67247
520.437,-374.794,67003
520.374,-377.097,66988
520.312,-379.401,66911
520.249,-381.705,66940
520.187,-384.009,66759
520.125,-386.315,66949
520.062,-388.62,66680
520.0,-390.927,66798
519.938,-393.234,66741
519.875,-395.541,66602
519.813,-397.849,66709
519.751,-400.158,66797
519.688,-402.467,66570
519.626,-404.776,66902
519.563,-407.086,66632
519.501,-409.397,66461
519.439,-411.708,66484
519.376,-414.02,66437
519.314,-416.333,66306
519.252,-418.646,66450
519.189,-420.959,66416
519.127,-423.273,66479
519.064,-425.588,66132
519.002,-427.903,66183
518.94,-430.219,66177
518.877,-432.535,65794
518.815,-434.852,65990
518.753,-437.169,65994
518.69,-439.487,65809
518.628,-441.806,65736
518.565,-444.125,65769
518.503,-446.445,65768
518.441,-448.765,65591
518.378,-451.086,65583
518.316,-453.407,65473
518.254,-455.729,65567
518.191,-458.051,65594
518.129,-460.374,65493
518.067,-462.698,65578
518.004,-465.022,65567
517.942,-467.347,65698
517.879,-469.672,65501
517.817,-471.998,65737
517.755,-474.324,65712
517.692,-476.651,65647
517.63,-478.978,65941
517.568,-481.306,66022
517.505,-483.635,66019
517.443,-485.964,66347
517.38,-488.294,66717
517.318,-490.624,67431
517.256,-492.955,68262
517.193,-495.286,69676
517.131,-497.618,71691
517.069,-499.951,74254
517.006,-502.284,75597
516.944,-504.618,74735
516.881,-506.952,72972
516.819,-509.287,70318
516.757,-511.622,68457
516.694,-513.958,67518
516.632,-516.294,66463
516.57,-518.631,65947
516.507,-520.969,65519
516.445,-523.307,65623
516.383,-525.646,65321
516.32,-527.985,65283
516.258,-530.325,65248
516.195,-532.665,65035
516.133,-535.006,65102
516.071,-537.348,64897
516.008,-539.69,64825
515.946,-542.033,64498
515.884,-544.376,64640
515.821,-546.72,64594
515.759,-549.064,64776
515.696,-551.409,64645
515.634,-553.755,64650
515.572,-556.101,64632
515.509,-558.448,64494
515.447,-560.795,64461
515.385,-563.143,64656
515.322,-565.491,64597
515.26,-567.84,64448
515.198,-570.189,64683
515.135,-572.539,64435
515.073,-574.89,64508
515.01,-577.241,64534
514.948,-579.593,64514
514.886,-581.945,64444
514.823,-584.298,64630
514.761,-586.652,64486
514.699,-589.006,64587
514.636,-591.361,64642
514.574,-593.716,64426
514.511,-596.072,64583
514.449,-598.428,64567
514.387,-600.785,64596
514.324,-603.142,64443
514.262,-605.5,64372
514.2,-607.859,64454
514.137,-610.218,64514
514.075,-612.578,64267
514.012,-614.938,64373
513.95,-617.299,64323
513.888,-619.661,64382
513.825,-622.023,64337
513.763,-624.385,64162
513.701,-626.749,64130
513.638,-629.112,64249
513.576,-631.477,64216
513.514,-633.842,64266
513.451,-636.207,64022
513.389,-638.573,64213
513.326,-640.94,64054
513.264,-643.307,64097
513.202,-645.675,64212
513.139,-648.043,64148
513.077,-650.412,64185
513.015,-652.782,64046
512.952,-655.152,63941
512.89,-657.523,63944
512.827,-659.894,64040
512.765,-662.266,63977
512.703,-664.638,63881
512.64,-667.011,64012
512.578,-669.385,64089
512.516,-671.759,63759
512.453,-674.134,63832
512.391,-676.509,63767
512.328,-678.885,63711
512.266,-681.261,63808
512.204,-683.638,63755
512.141,-686.016,63926
512.079,-688.394,63793
512.017,-690.773,63790
511.954,-693.152,63697
511.892,-695.532,63608
511.83,-697.913,63775
511.767,-700.294,63727
511.705,-702.676,63695
511.642,-705.058,63522
511.58,-707.441,63504
511.518,-709.824,63676
511.455,-712.208,63721
511.393,-714.593,63486
511.331,-716.978,63464
511.268,-719.364,63595
511.206,-721.75,63522
511.143,-724.137,63495
511.081,-726.525,63430
511.019,-728.913,63403
510.956,-731.301,63560
510.894,-733.691,63477
510.832,-736.08,63479
510.769,-738.471,63356
510.707,-740.862,63427
510.644,-743.253,63468
510.582,-745.646,63304
510.52,-748.038,63475
510.457,-750.432,63351
510.395,-752.826,63247
510.333,-755.22,63378
510.27,-757.615,63367
510.208,-760.011,63320
510.146,-762.407,63386
510.083,-764.804,63318
510.021,-767.201,63362
509.958,-769.599,63296
509.896,-771.998,63312
509.834,-774.397,63188
509.771,-776.797,63200
509.709,-779.197,63309
509.647,-781.598,63121
509.584,-784,63269
509.522,-786.402,63264
509.459,-788.805,63176
509.397,-791.208,63053
509.335,-793.612,63105
509.272,-796.016,63140
509.21,-798.421,63052
509.148,-800.827,62994
509.085,-803.233,62899
509.023,-805.64,63114
508.96,-808.048,62923
508.898,-810.456,63105
508.836,-812.864,63043
508.773,-815.274,63081
508.711,-817.683,62844
508.661,-819.612,62921