File: tomke/20240809_Si_on_TiO2/20240809/raw_data/Si_onTiO2_0mA_30mW_30sec_1acc_545nm.txt
Wavelength(nm), Raman shift(cm^-1), Intensity(counts)
553.312,766.856,59884
553.3,766.451,59881
553.287,766.046,60077
553.275,765.641,60252
553.262,765.236,60113
553.25,764.831,60230
553.238,764.426,60175
553.225,764.021,60255
553.213,763.616,60065
553.2,763.211,60132
553.188,762.806,60152
553.176,762.401,60142
553.163,761.996,60047
553.151,761.591,60156
553.138,761.185,60114
553.126,760.78,60048
553.114,760.375,60163
553.101,759.97,60108
553.089,759.565,60183
553.076,759.159,60208
553.064,758.754,60118
553.052,758.349,60125
553.039,757.943,60064
553.027,757.538,60095
553.014,757.133,60157
553.002,756.727,60193
552.99,756.322,60056
552.977,755.917,60111
552.965,755.511,60146
552.952,755.106,60051
552.94,754.7,60111
552.928,754.295,60120
552.915,753.889,60195
552.903,753.484,60166
552.89,753.078,60189
552.878,752.673,60168
552.866,752.267,60107
552.853,751.862,60068
552.841,751.456,60175
552.829,751.05,60096
552.816,750.645,60177
552.804,750.239,60134
552.791,749.833,60178
552.779,749.428,60119
552.767,749.022,60219
552.754,748.616,60098
552.742,748.211,60144
552.729,747.805,60083
552.717,747.399,60137
552.705,746.993,60132
552.692,746.587,60163
552.68,746.182,60148
552.667,745.776,60163
552.655,745.37,60192
552.643,744.964,60109
552.63,744.558,60171
552.618,744.152,60149
552.605,743.746,60147
552.593,743.34,60171
552.581,742.934,60119
552.568,742.528,60132
552.556,742.122,60070
552.543,741.716,60144
552.531,741.31,60163
552.519,740.904,60113
552.506,740.498,60126
552.494,740.092,60147
552.481,739.686,60131
552.469,739.28,60146
552.457,738.873,60216
552.444,738.467,60247
552.432,738.061,60117
552.419,737.655,60088
552.407,737.249,60161
552.395,736.842,60123
552.382,736.436,60087
552.37,736.03,60235
552.357,735.624,60173
552.345,735.217,60075
552.333,734.811,60086
552.32,734.405,60127
552.308,733.998,60012
552.295,733.592,60219
552.283,733.185,60002
552.271,732.779,60216
552.258,732.372,60149
552.246,731.966,60035
552.233,731.559,60179
552.221,731.153,60175
552.209,730.746,60125
552.196,730.34,60177
552.184,729.933,60123
552.171,729.527,60158
552.159,729.12,60120
552.147,728.714,60098
552.134,728.307,60058
552.122,727.9,60134
552.11,727.494,60064
552.097,727.087,60106
552.085,726.68,60147
552.072,726.273,60128
552.06,725.867,60228
552.048,725.46,60152
552.035,725.053,60134
552.023,724.646,60086
552.01,724.24,60182
551.998,723.833,60161
551.986,723.426,60120
551.973,723.019,60114
551.961,722.612,60144
551.948,722.205,60161
551.936,721.798,60195
551.924,721.391,60162
551.911,720.984,60142
551.899,720.577,60155
551.886,720.17,60156
551.874,719.763,60089
551.862,719.356,60148
551.849,718.949,60128
551.837,718.542,60192
551.824,718.135,60139
551.812,717.728,60107
551.8,717.321,60122
551.787,716.914,60097
551.775,716.506,59997
551.762,716.099,60141
551.75,715.692,60017
551.738,715.285,60131
551.725,714.878,60163
551.713,714.47,60078
551.7,714.063,60107
551.688,713.656,60052
551.676,713.248,60152
551.663,712.841,60027
551.651,712.434,60211
551.638,712.026,60060
551.626,711.619,60151
551.614,711.212,60168
551.601,710.804,60070
551.589,710.397,60215
551.576,709.989,60078
551.564,709.582,60096
551.552,709.174,60062
551.539,708.767,60165
551.527,708.359,60141
551.514,707.952,60057
551.502,707.544,60159
551.49,707.137,60137
551.477,706.729,60169
551.465,706.321,60141
551.452,705.914,60215
551.44,705.506,60176
551.428,705.098,60117
551.415,704.691,60066
551.403,704.283,60164
551.39,703.875,60119
551.378,703.467,60120
551.366,703.06,60067
551.353,702.652,60146
551.341,702.244,60051
551.329,701.836,60133
551.316,701.428,60087
551.304,701.021,60146
551.291,700.613,60139
551.279,700.205,60191
551.267,699.797,60137
551.254,699.389,60166
551.242,698.981,60168
551.229,698.573,60120
551.217,698.165,60173
551.205,697.757,60183
551.192,697.349,60186
551.18,696.941,60229
551.167,696.533,60252
551.155,696.125,60112
551.143,695.717,60207
551.13,695.309,60243
551.118,694.9,60162
551.105,694.492,60160
551.093,694.084,60285
551.081,693.676,60246
551.068,693.268,60235
551.056,692.859,60153
551.043,692.451,60221
551.031,692.043,60208
551.019,691.635,60231
551.006,691.226,60211
550.994,690.818,60199
550.981,690.41,60252
550.969,690.001,60236
550.957,689.593,60178
550.944,689.185,60219
550.932,688.776,60193
550.919,688.368,60227
550.907,687.959,60248
550.895,687.551,60194
550.882,687.142,60196
550.87,686.734,60187
550.857,686.325,60147
550.845,685.917,60238
550.833,685.508,60184
550.82,685.1,60228
550.808,684.691,60266
550.795,684.282,60267
550.783,683.874,60245
550.771,683.465,60246
550.758,683.056,60253
550.746,682.648,60151
550.733,682.239,60332
550.721,681.83,60279
550.709,681.422,60241
550.696,681.013,60272
550.684,680.604,60217
550.671,680.195,60268
550.659,679.786,60326
550.647,679.378,60271
550.634,678.969,60213
550.622,678.56,60279
550.61,678.151,60219
550.597,677.742,60252
550.585,677.333,60263
550.572,676.924,60230
550.56,676.515,60214
550.548,676.106,60146
550.535,675.697,60284
550.523,675.288,60230
550.51,674.879,60248
550.498,674.47,60268
550.486,674.061,60286
550.473,673.652,60220
550.461,673.243,60337
550.448,672.834,60215
550.436,672.424,60282
550.424,672.015,60284
550.411,671.606,60224
550.399,671.197,60212
550.386,670.788,60294
550.374,670.378,60349
550.362,669.969,60268
550.349,669.56,60321
550.337,669.151,60288
550.324,668.741,60224
550.312,668.332,60324
550.3,667.923,60266
550.287,667.513,60288
550.275,667.104,60302
550.262,666.694,60324
550.25,666.285,60285
550.238,665.876,60237
550.225,665.466,60429
550.213,665.057,60254
550.2,664.647,60289
550.188,664.238,60312
550.176,663.828,60355
550.163,663.419,60323
550.151,663.009,60277
550.138,662.599,60231
550.126,662.19,60260
550.114,661.78,60313
550.101,661.37,60286
550.089,660.961,60252
550.076,660.551,60315
550.064,660.141,60275
550.052,659.732,60272
550.039,659.322,60226
550.027,658.912,60327
550.014,658.502,60221
550.002,658.093,60323
549.99,657.683,60284
549.977,657.273,60322
549.965,656.863,60299
549.952,656.453,60327
549.94,656.043,60419
549.928,655.633,60373
549.915,655.224,60353
549.903,654.814,60358
549.89,654.404,60197
549.878,653.994,60287
549.866,653.584,60235
549.853,653.174,60337
549.841,652.764,60220
549.829,652.354,60289
549.816,651.943,60225
549.804,651.533,60302
549.791,651.123,60286
549.779,650.713,60298
549.767,650.303,60285
549.754,649.893,60308
549.742,649.483,60286
549.729,649.072,60335
549.717,648.662,60276
549.705,648.252,60292
549.692,647.842,60290
549.68,647.431,60296
549.667,647.021,60315
549.655,646.611,60321
549.643,646.201,60324
549.63,645.79,60246
549.618,645.38,60331
549.605,644.969,60349
549.593,644.559,60260
549.581,644.149,60328
549.568,643.738,60301
549.556,643.328,60327
549.543,642.917,60398
549.531,642.507,60304
549.519,642.096,60304
549.506,641.686,60252
549.494,641.275,60268
549.481,640.864,60236
549.469,640.454,60380
549.457,640.043,60456
549.444,639.633,60269
549.432,639.222,60256
549.419,638.811,60321
549.407,638.401,60388
549.395,637.99,60316
549.382,637.579,60399
549.37,637.169,60305
549.357,636.758,60308
549.345,636.347,60401
549.333,635.936,60347
549.32,635.525,60288
549.308,635.115,60381
549.295,634.704,60444
549.283,634.293,60355
549.271,633.882,60418
549.258,633.471,60425
549.246,633.06,60341
549.233,632.649,60400
549.221,632.238,60410
549.209,631.827,60380
549.196,631.416,60386
549.184,631.005,60323
549.171,630.594,60371
549.159,630.183,60356
549.147,629.772,60341
549.134,629.361,60375
549.122,628.95,60349
549.11,628.539,60360
549.097,628.128,60403
549.085,627.716,60370
549.072,627.305,60374
549.06,626.894,60502
549.048,626.483,60417
549.035,626.072,60497
549.023,625.66,60346
549.01,625.249,60431
548.998,624.838,60373
548.986,624.426,60338
548.973,624.015,60433
548.961,623.604,60391
548.948,623.192,60419
548.936,622.781,60488
548.924,622.37,60499
548.911,621.958,60409
548.899,621.547,60446
548.886,621.135,60389
548.874,620.724,60427
548.862,620.312,60433
548.849,619.901,60489
548.837,619.489,60350
548.824,619.078,60492
548.812,618.666,60408
548.8,618.254,60425
548.787,617.843,60401
548.775,617.431,60359
548.762,617.02,60276
548.75,616.608,60457
548.738,616.196,60428
548.725,615.784,60409
548.713,615.373,60356
548.7,614.961,60366
548.688,614.549,60323
548.676,614.137,60380
548.663,613.726,60289
548.651,613.314,60292
548.638,612.902,60357
548.626,612.49,60351
548.614,612.078,60249
548.601,611.666,60283
548.589,611.254,60305
548.576,610.843,60246
548.564,610.431,60394
548.552,610.019,60324
548.539,609.607,60353
548.527,609.195,60281
548.514,608.783,60384
548.502,608.371,60326
548.49,607.959,60306
548.477,607.546,60316
548.465,607.134,60280
548.452,606.722,60280
548.44,606.31,60291
548.428,605.898,60317
548.415,605.486,60378
548.403,605.074,60319
548.39,604.661,60294
548.378,604.249,60340
548.366,603.837,60401
548.353,603.425,60104
548.341,603.012,60302
548.329,602.6,60261
548.316,602.188,60183
548.304,601.775,60227
548.291,601.363,60180
548.279,600.951,60284
548.267,600.538,60265
548.254,600.126,60211
548.242,599.713,60304
548.229,599.301,60288
548.217,598.889,60193
548.205,598.476,60251
548.192,598.064,60296
548.18,597.651,60174
548.167,597.238,60237
548.155,596.826,60102
548.143,596.413,60225
548.13,596.001,60269
548.118,595.588,60214
548.105,595.175,60224
548.093,594.763,60260
548.081,594.35,60196
548.068,593.937,60123
548.056,593.525,60214
548.043,593.112,60269
548.031,592.699,60161
548.019,592.287,60244
548.006,591.874,60224
547.994,591.461,60222
547.981,591.048,60225
547.969,590.635,60168
547.957,590.222,60206
547.944,589.81,60172
547.932,589.397,60274
547.919,588.984,60218
547.907,588.571,60316
547.895,588.158,60256
547.882,587.745,60166
547.87,587.332,60239
547.857,586.919,60241
547.845,586.506,60278
547.833,586.093,60230
547.82,585.68,60185
547.808,585.267,60169
547.795,584.853,60213
547.783,584.44,60152
547.771,584.027,60266
547.758,583.614,60239
547.746,583.201,60246
547.733,582.788,60203
547.721,582.374,60227
547.709,581.961,60235
547.696,581.548,60229
547.684,581.135,60234
547.671,580.721,60258
547.659,580.308,60251
547.647,579.895,60299
547.634,579.481,60203
547.622,579.068,60216
547.61,578.655,60242
547.597,578.241,60242
547.585,577.828,60192
547.572,577.414,60195
547.56,577.001,60247
547.548,576.587,60165
547.535,576.174,60189
547.523,575.76,60068
547.51,575.347,60192
547.498,574.933,60271
547.486,574.52,60230
547.473,574.106,60231
547.461,573.693,60238
547.448,573.279,60248
547.436,572.865,60245
547.424,572.452,60222
547.411,572.038,60161
547.399,571.624,60162
547.386,571.211,60187
547.374,570.797,60197
547.362,570.383,60236
547.349,569.969,60235
547.337,569.555,60225
547.324,569.142,60133
547.312,568.728,60193
547.3,568.314,60218
547.287,567.9,60261
547.275,567.486,60184
547.262,567.072,60216
547.25,566.658,60206
547.238,566.244,60255
547.225,565.83,60233
547.213,565.417,60168
547.2,565.002,60335
547.188,564.588,60314
547.176,564.174,60278
547.163,563.76,60236
547.151,563.346,60235
547.138,562.932,60275
547.126,562.518,60247
547.114,562.104,60260
547.101,561.69,60207
547.089,561.276,60274
547.076,560.861,60322
547.064,560.447,60204
547.052,560.033,60253
547.039,559.619,60290
547.027,559.204,60315
547.014,558.79,60286
547.002,558.376,60325
546.99,557.962,60307
546.977,557.547,60257
546.965,557.133,60337
546.952,556.719,60265
546.94,556.304,60347
546.928,555.89,60380
546.915,555.475,60359
546.903,555.061,60334
546.89,554.646,60355
546.878,554.232,60356
546.866,553.817,60360
546.853,553.403,60314
546.841,552.988,60352
546.829,552.574,60379
546.816,552.159,60326
546.804,551.744,60412
546.791,551.33,60510
546.779,550.915,60413
546.767,550.501,60387
546.754,550.086,60469
546.742,549.671,60497
546.729,549.256,60406
546.717,548.842,60467
546.705,548.427,60552
546.692,548.012,60427
546.68,547.597,60488
546.667,547.183,60553
546.655,546.768,60498
546.643,546.353,60585
546.63,545.938,60526
546.618,545.523,60574
546.605,545.108,60667
546.593,544.693,60576
546.581,544.278,60552
546.568,543.863,60723
546.556,543.448,60580
546.543,543.033,60646
546.531,542.618,60716
546.519,542.203,60613
546.506,541.788,60755
546.494,541.373,60799
546.481,540.958,60703
546.469,540.543,60783
546.457,540.128,60884
546.444,539.713,60806
546.432,539.298,60915
546.419,538.882,60855
546.407,538.467,60925
546.395,538.052,60998
546.382,537.637,60874
546.37,537.222,61082
546.357,536.806,60948
546.345,536.391,61097
546.333,535.976,61207
546.32,535.56,61260
546.308,535.145,61300
546.295,534.73,61389
546.283,534.314,61483
546.271,533.899,61507
546.258,533.483,61619
546.246,533.068,61724
546.233,532.652,61693
546.221,532.237,61889
546.209,531.821,61782
546.196,531.406,62113
546.184,530.99,62216
546.171,530.575,62460
546.159,530.159,62681
546.147,529.744,62936
546.134,529.328,63126
546.122,528.912,63463
546.11,528.497,63895
546.097,528.081,64158
546.085,527.665,64730
546.072,527.25,65364
546.06,526.834,66060
546.048,526.418,66985
546.035,526.002,68301
546.023,525.587,69926
546.01,525.171,71943
545.998,524.755,74537
545.986,524.339,77987
545.973,523.923,82638
545.961,523.507,88812
545.948,523.091,95262
545.936,522.675,102248
545.924,522.26,108304
545.911,521.844,113554
545.899,521.428,118209
545.886,521.012,122281
545.874,520.596,124156
545.862,520.18,125127
545.849,519.763,123922
545.837,519.347,122007
545.824,518.931,118493
545.812,518.515,114485
545.8,518.099,108331
545.787,517.683,102970
545.775,517.267,98082
545.762,516.851,92993
545.75,516.434,89537
545.738,516.018,85400
545.725,515.602,82306
545.713,515.186,79372
545.7,514.769,76352
545.688,514.353,74256
545.676,513.937,72130
545.663,513.52,70363
545.651,513.104,68790
545.638,512.688,67414
545.626,512.271,66427
545.614,511.855,65445
545.601,511.438,64820
545.589,511.022,64367
545.576,510.605,63759
545.564,510.189,63540
545.552,509.772,63181
545.539,509.356,62925
545.527,508.939,62667
545.514,508.523,62508
545.502,508.106,62368
545.49,507.69,62186
545.477,507.273,62045
545.465,506.856,61759
545.452,506.44,61816
545.44,506.023,61621
545.428,505.606,61662
545.415,505.19,61537
545.403,504.773,61457
545.39,504.356,61319
545.378,503.939,61291
545.366,503.523,61230
545.353,503.106,61191
545.341,502.689,61114
545.329,502.272,61186
545.316,501.855,61033
545.304,501.438,61087
545.291,501.021,61056
545.279,500.604,60927
545.267,500.188,60890
545.254,499.771,60732
545.242,499.354,60912
545.229,498.937,60813
545.217,498.52,60824
545.205,498.103,60750
545.192,497.685,60840
545.18,497.268,60725
545.167,496.851,60741
545.155,496.434,60753
545.143,496.017,60734
545.13,495.6,60664
545.118,495.183,60606
545.105,494.766,60639
545.093,494.348,60633
545.081,493.931,60606
545.068,493.514,60594
545.056,493.097,60568
545.043,492.679,60620
545.031,492.262,60517
545.019,491.845,60537
545.006,491.427,60584
544.994,491.01,60483
544.981,490.593,60640
544.969,490.175,60597
544.957,489.758,60427
544.944,489.34,60631
544.932,488.923,60557
544.919,488.505,60533
544.907,488.088,60566
544.895,487.67,60560
544.882,487.253,60443
544.87,486.835,60519
544.857,486.418,60463
544.845,486,60463
544.833,485.583,60466
544.82,485.165,60415
544.808,484.747,60474
544.795,484.33,60427
544.783,483.912,60464
544.771,483.494,60473
544.758,483.076,60366
544.746,482.659,60377
544.733,482.241,60299
544.721,481.823,60444
544.709,481.405,60383
544.696,480.988,60437
544.684,480.57,60250
544.671,480.152,60347
544.659,479.734,60300
544.647,479.316,60307
544.634,478.898,60162
544.622,478.48,60263
544.61,478.062,60353
544.597,477.644,60301
544.585,477.226,60265
544.572,476.808,60379
544.56,476.39,60304
544.548,475.972,60270
544.535,475.554,60293
544.523,475.136,60346
544.51,474.718,60292
544.498,474.3,60269
544.486,473.882,60295
544.473,473.464,60294
544.461,473.045,60161
544.448,472.627,60288
544.436,472.209,60264
544.424,471.791,60382
544.411,471.373,60281
544.399,470.954,60310
544.386,470.536,60173
544.374,470.118,60261
544.362,469.699,60237
544.349,469.281,60299
544.337,468.863,60274
544.324,468.444,60261
544.312,468.026,60301
544.3,467.607,60223
544.287,467.189,60290
544.275,466.77,60307
544.262,466.352,60320
544.25,465.933,60216
544.238,465.515,60219
544.225,465.096,60197
544.213,464.678,60342
544.2,464.259,60411
544.188,463.841,60265
544.176,463.422,60166
544.163,463.003,60125
544.151,462.585,60254
544.138,462.166,60193
544.126,461.747,60167
544.114,461.329,60265
544.101,460.91,60155
544.089,460.491,60263
544.076,460.072,60184
544.064,459.654,60231
544.052,459.235,60238
544.039,458.816,60266
544.027,458.397,60273
544.014,457.978,60225
544.002,457.559,60195
543.99,457.14,60217
543.977,456.722,60223
543.965,456.303,60263
543.952,455.884,60234
543.94,455.465,60247
543.928,455.046,60209
543.915,454.627,60222
543.903,454.208,60217
543.89,453.789,60261
543.878,453.369,60228
543.866,452.95,60212
543.853,452.531,60186
543.841,452.112,60231
543.829,451.693,60214
543.816,451.274,60354
543.804,450.855,60234
543.791,450.435,60232
543.779,450.016,60320
543.767,449.597,60302
543.754,449.178,60265
543.742,448.758,60339
543.729,448.339,60271
543.717,447.92,60144
543.705,447.5,60256
543.692,447.081,60385
543.68,446.662,60343
543.667,446.242,60339
543.655,445.823,60372
543.643,445.403,60363
543.63,444.984,60388
543.618,444.564,60273
543.605,444.145,60341
543.593,443.725,60307
543.581,443.306,60335
543.568,442.886,60426
543.556,442.467,60429
543.543,442.047,60458
543.531,441.628,60375
543.519,441.208,60364
543.506,440.788,60457
543.494,440.369,60367
543.481,439.949,60386
543.469,439.529,60365
543.457,439.11,60375
543.444,438.69,60349
543.432,438.27,60422
543.419,437.85,60488
543.407,437.43,60445
543.395,437.011,60393
543.382,436.591,60503
543.37,436.171,60441
543.357,435.751,60408
543.345,435.331,60420
543.333,434.911,60437
543.32,434.491,60434
543.308,434.071,60419
543.295,433.651,60523
543.283,433.231,60433
543.271,432.811,60427
543.258,432.391,60416
543.246,431.971,60452
543.233,431.551,60518
543.221,431.131,60479
543.209,430.711,60441
543.196,430.291,60505
543.184,429.871,60490
543.171,429.451,60373
543.159,429.03,60410
543.147,428.61,60436
543.134,428.19,60416
543.122,427.77,60490
543.11,427.349,60502
543.097,426.929,60436
543.085,426.509,60439
543.072,426.088,60394
543.06,425.668,60485
543.048,425.248,60537
543.035,424.827,60428
543.023,424.407,60335
543.01,423.987,60417
542.998,423.566,60415
542.986,423.146,60382
542.973,422.725,60441
542.961,422.305,60422
542.948,421.884,60432
542.936,421.464,60383
542.924,421.043,60425
542.911,420.623,60400
542.899,420.202,60357
542.886,419.781,60547
542.874,419.361,60418
542.862,418.94,60436
542.849,418.519,60413
542.837,418.099,60420
542.824,417.678,60393
542.812,417.257,60422
542.8,416.837,60507
542.787,416.416,60339
542.775,415.995,60406
542.762,415.574,60472
542.75,415.153,60330
542.738,414.733,60382
542.725,414.312,60468
542.713,413.891,60413
542.7,413.47,60406
542.688,413.049,60415
542.676,412.628,60335
542.663,412.207,60371
542.651,411.786,60497
542.638,411.365,60335
542.626,410.944,60388
542.614,410.523,60460
542.601,410.102,60366
542.589,409.681,60363
542.576,409.26,60380
542.564,408.839,60365
542.552,408.418,60363
542.539,407.997,60364
542.527,407.575,60405
542.514,407.154,60374
542.502,406.733,60440
542.49,406.312,60381
542.477,405.891,60404
542.465,405.469,60382
542.452,405.048,60403
542.44,404.627,60333
542.428,404.205,60407
542.415,403.784,60441
542.403,403.363,60440
542.39,402.941,60423
542.378,402.52,60436
542.366,402.098,60413
542.353,401.677,60446
542.341,401.256,60391
542.329,400.834,60418
542.316,400.413,60437
542.304,399.991,60339
542.291,399.57,60407
542.279,399.148,60386
542.267,398.726,60389
542.254,398.305,60524
542.242,397.883,60390
542.229,397.462,60448
542.217,397.04,60500
542.205,396.618,60411
542.192,396.197,60405
542.18,395.775,60372
542.167,395.353,60426
542.155,394.931,60543
542.143,394.51,60424
542.13,394.088,60336
542.118,393.666,60394
542.105,393.244,60403
542.093,392.822,60511
542.081,392.401,60326
542.068,391.979,60439
542.056,391.557,60500
542.043,391.135,60428
542.031,390.713,60407
542.019,390.291,60426
542.006,389.869,60404
541.994,389.447,60486
541.981,389.025,60398
541.969,388.603,60447
541.957,388.181,60469
541.944,387.759,60504
541.932,387.337,60407
541.919,386.915,60379
541.907,386.492,60466
541.895,386.07,60464
541.882,385.648,60421
541.87,385.226,60394
541.857,384.804,60435
541.845,384.382,60435
541.833,383.959,60452
541.82,383.537,60342
541.808,383.115,60441
541.795,382.692,60421
541.783,382.27,60411
541.771,381.848,60534
541.758,381.425,60366
541.746,381.003,60368
541.733,380.581,60480
541.721,380.158,60487
541.709,379.736,60432
541.696,379.313,60460
541.684,378.891,60414
541.671,378.468,60400
541.659,378.046,60496
541.647,377.623,60507
541.634,377.201,60453
541.622,376.778,60471
541.61,376.356,60571
541.597,375.933,60420
541.585,375.51,60473
541.572,375.088,60440
541.56,374.665,60410
541.548,374.242,60465
541.535,373.82,60537
541.523,373.397,60529
541.51,372.974,60491
541.498,372.551,60483
541.486,372.129,60578
541.473,371.706,60445
541.461,371.283,60487
541.448,370.86,60514
541.436,370.437,60435
541.424,370.014,60557
541.411,369.591,60480
541.399,369.169,60528
541.386,368.746,60465
541.374,368.323,60461
541.362,367.9,60492
541.349,367.477,60493
541.337,367.054,60479
541.324,366.631,60455
541.312,366.208,60538
541.3,365.784,60590
541.287,365.361,60439
541.275,364.938,60388
541.262,364.515,60459
541.25,364.092,60463
541.238,363.669,60501
541.225,363.246,60508
541.213,362.822,60480
541.2,362.399,60480
541.188,361.976,60481
541.176,361.553,60489
541.163,361.129,60565
541.151,360.706,60473
541.138,360.283,60543
541.126,359.859,60478
541.114,359.436,60520
541.101,359.013,60540
541.089,358.589,60476
541.076,358.166,60547
541.064,357.742,60518
541.052,357.319,60543
541.039,356.895,60454
541.027,356.472,60556
541.014,356.048,60515
541.002,355.625,60494
540.99,355.201,60574
540.977,354.778,60545
540.965,354.354,60515
540.952,353.93,60560
540.94,353.507,60491
540.928,353.083,60554
540.915,352.659,60516
540.903,352.236,60556
540.89,351.812,60534
540.878,351.388,60538
540.866,350.964,60529
540.853,350.541,60542
540.841,350.117,60566
540.829,349.693,60600
540.816,349.269,60607
540.804,348.845,60602
540.791,348.422,60568
540.779,347.998,60449
540.767,347.574,60563
540.754,347.15,60586
540.742,346.726,60542
540.729,346.302,60541
540.717,345.878,60553
540.705,345.454,60619
540.692,345.03,60605
540.68,344.606,60497
540.667,344.182,60530
540.655,343.758,60484
540.643,343.334,60568
540.63,342.909,60557
540.618,342.485,60536
540.605,342.061,60667
540.593,341.637,60599
540.581,341.213,60679
540.568,340.788,60627
540.556,340.364,60495
540.543,339.94,60578
540.531,339.516,60674
540.519,339.091,60615
540.506,338.667,60636
540.494,338.243,60524
540.481,337.818,60628
540.469,337.394,60578
540.457,336.97,60617
540.444,336.545,60644
540.432,336.121,60632
540.419,335.696,60683
540.407,335.272,60655
540.395,334.847,60670
540.382,334.423,60565
540.37,333.998,60537
540.357,333.574,60641
540.345,333.149,60668
540.333,332.725,60655
540.32,332.3,60588
540.308,331.875,60610
540.295,331.451,60599
540.283,331.026,60728
540.271,330.601,60618
540.258,330.177,60632
540.246,329.752,60577
540.233,329.327,60665
540.221,328.902,60718
540.209,328.478,60679
540.196,328.053,60631
540.184,327.628,60708
540.171,327.203,60743
540.159,326.778,60634
540.147,326.353,60654
540.134,325.928,60786
540.122,325.503,60728
540.11,325.079,60778
540.097,324.654,60683
540.085,324.229,60701
540.072,323.804,60734
540.06,323.379,60646
540.048,322.953,60767
540.035,322.528,60857
540.023,322.103,60817
540.01,321.678,60760
539.998,321.253,63353
539.986,320.828,69063
539.973,320.403,75445
539.961,319.978,62985
539.948,319.552,62894
539.936,319.127,76390
539.924,318.702,63260
539.911,318.277,62485
539.899,317.851,60791
539.886,317.426,60833
539.874,317.001,60848
539.862,316.576,60703
539.849,316.15,60825
539.837,315.725,60767
539.824,315.299,60805
539.812,314.874,60763
539.8,314.449,60795
539.787,314.023,60805
539.775,313.598,60804
539.762,313.172,60792
539.75,312.747,60822
539.738,312.321,60901
539.725,311.896,60819
539.713,311.47,60949
539.7,311.044,60892
539.688,310.619,60864
539.676,310.193,60875
539.663,309.767,60948
539.651,309.342,60959
539.638,308.916,60915
539.626,308.49,60961
539.614,308.065,61027
539.601,307.639,61003
539.589,307.213,61020
539.576,306.787,61137
539.564,306.362,61079
539.552,305.936,61115
539.539,305.51,61028
539.527,305.084,61153
539.514,304.658,61059
539.502,304.232,61177
539.49,303.806,61213
539.477,303.38,61213
539.465,302.954,61152
539.452,302.528,61298
539.44,302.102,61170
539.428,301.676,61265
539.415,301.25,61324
539.403,300.824,61261
539.39,300.398,61184
539.378,299.972,61287
539.366,299.546,61241
539.353,299.12,61225
539.341,298.694,61146
539.329,298.268,61145
539.316,297.841,61116
539.304,297.415,61130
539.291,296.989,61090
539.279,296.563,61143
539.267,296.136,61027
539.254,295.71,61062
539.242,295.284,60902
539.229,294.857,61041
539.217,294.431,60829
539.205,294.005,60997
539.192,293.578,60906
539.18,293.152,61015
539.167,292.726,60846
539.155,292.299,60835
539.143,291.873,60875
539.13,291.446,60865
539.118,291.02,60854
539.105,290.593,60882
539.093,290.167,60825
539.081,289.74,60804
539.068,289.313,60872
539.056,288.887,60850
539.043,288.46,60858
539.031,288.034,60795
539.019,287.607,60949
539.006,287.18,60714
538.994,286.753,60874
538.981,286.327,60861
538.969,285.9,60756
538.957,285.473,60821
538.944,285.046,60682
538.932,284.62,60743
538.919,284.193,60804
538.907,283.766,60785
538.895,283.339,60691
538.882,282.912,60680
538.87,282.485,60696
538.857,282.058,60771
538.845,281.631,60784
538.833,281.204,60707
538.82,280.778,60795
538.808,280.351,60774
538.795,279.923,60785
538.783,279.496,60779
538.771,279.069,60864
538.758,278.642,60781
538.746,278.215,60725
538.733,277.788,60800
538.721,277.361,60838
538.709,276.934,60784
538.696,276.507,60762
538.684,276.079,60774
538.671,275.652,60738
538.659,275.225,60848
538.647,274.798,60821
538.634,274.37,60793
538.622,273.943,60855
538.61,273.516,60881
538.597,273.088,60887
538.585,272.661,60742
538.572,272.234,60868
538.56,271.806,60877
538.548,271.379,60840
538.535,270.952,60877
538.523,270.524,60838
538.51,270.097,60830
538.498,269.669,60881
538.486,269.242,60866
538.473,268.814,60819
538.461,268.387,60776
538.448,267.959,60728
538.436,267.531,60738
538.424,267.104,60714
538.411,266.676,60695
538.399,266.248,60743
538.386,265.821,60706
538.374,265.393,60655
538.362,264.965,60650
538.349,264.538,60624
538.337,264.11,60611
538.324,263.682,60507
538.312,263.254,60488
538.3,262.827,60488
538.287,262.399,60483
538.275,261.971,60447
538.262,261.543,60398
538.25,261.115,60359
538.238,260.687,60422
538.225,260.259,60354
538.213,259.831,60295
538.2,259.403,60283
538.188,258.975,60351
538.176,258.547,60250
538.163,258.119,60209
538.151,257.691,60256
538.138,257.263,60157
538.126,256.835,60138
538.114,256.407,60126
538.101,255.979,60169
538.089,255.551,60035
538.076,255.123,60134
538.064,254.694,60144
538.052,254.266,60133
538.039,253.838,60084
538.027,253.41,60067
538.014,252.982,60121
538.002,252.553,60103
537.99,252.125,60062
537.977,251.697,60104
537.965,251.268,60078
537.952,250.84,60106
537.94,250.412,60047
537.928,249.983,60049
537.915,249.555,60076
537.903,249.126,60037
537.89,248.698,60094
537.878,248.269,60033
537.866,247.841,60078
537.853,247.412,60077
537.841,246.984,59977
537.829,246.555,60029
537.816,246.127,60110
537.804,245.698,59996
537.791,245.27,59979
537.779,244.841,59999
537.767,244.412,60012
537.754,243.984,59978
537.742,243.555,60017
537.729,243.126,59991
537.717,242.697,59969
537.705,242.269,60016
537.692,241.84,59996
537.68,241.411,60006
537.667,240.982,60028
537.655,240.553,60057
537.643,240.125,60086
537.63,239.696,59995
537.618,239.267,59930
537.605,238.838,59952
537.593,238.409,60019
537.581,237.98,59989
537.568,237.551,59981
537.556,237.122,60047
537.543,236.693,59949
537.531,236.264,59945
537.519,235.835,59949
537.506,235.406,59999
537.494,234.977,60036
537.481,234.548,59948
537.469,234.119,60042
537.457,233.689,59943
537.444,233.26,59951
537.432,232.831,59923
537.419,232.402,59987
537.407,231.973,60028
537.395,231.543,60069
537.382,231.114,59990
537.37,230.685,59969
537.357,230.255,59912
537.345,229.826,60141
537.333,229.397,59958
537.32,228.967,60037
537.308,228.538,60048
537.295,228.109,59967
537.283,227.679,59987
537.271,227.25,59979
537.258,226.82,59932
537.246,226.391,59962
537.233,225.961,59898
537.221,225.532,60074
537.209,225.102,59989
537.196,224.673,60071
537.184,224.243,59953
537.171,223.813,59982
537.159,223.384,59989
537.147,222.954,59984
537.134,222.525,60049
537.122,222.095,60040
537.11,221.665,59974
537.097,221.235,60068
537.085,220.806,59965
537.072,220.376,60015
537.06,219.946,60030
537.048,219.516,60010
537.035,219.087,60062
537.023,218.657,59980
537.01,218.227,60049
536.998,217.797,60024
536.986,217.367,59984
536.973,216.937,59968
536.961,216.507,60059
536.948,216.077,60067
536.936,215.647,60014
536.924,215.217,60036
536.911,214.787,60028
536.899,214.357,60010
536.886,213.927,59994
536.874,213.497,60038
536.862,213.067,60014
536.849,212.637,60003
536.837,212.207,60017
536.824,211.776,59895
536.812,211.346,59918
536.8,210.916,59911
536.787,210.486,60072
536.775,210.056,60030
536.762,209.625,60044
536.75,209.195,60039
536.738,208.765,59950
536.725,208.334,59977
536.713,207.904,60033