File: tomke/20240809_Si_on_TiO2/20240809/raw_data/Si_onTiO2_0mA_30mW_30sec_3acc_517nm_bg_new.txt
Wavelength(nm), Raman shift(cm^-1), Intensity(counts)
524.12,-239.756,59753
524.088,-240.916,60059
524.056,-242.076,60149
524.024,-243.236,60024
523.993,-244.396,59994
523.961,-245.556,60046
523.929,-246.717,60058
523.897,-247.877,60012
523.865,-249.038,59953
523.833,-250.199,59975
523.801,-251.36,60072
523.77,-252.521,60033
523.738,-253.683,59991
523.706,-254.844,59933
523.674,-256.006,59955
523.642,-257.167,60114
523.61,-258.329,59991
523.578,-259.491,60034
523.547,-260.654,59972
523.515,-261.816,59923
523.483,-262.978,59986
523.451,-264.141,59998
523.419,-265.304,59937
523.387,-266.466,60022
523.355,-267.629,60014
523.324,-268.793,59985
523.292,-269.956,59956
523.26,-271.119,60003
523.228,-272.283,60080
523.196,-273.447,59966
523.164,-274.611,60091
523.132,-275.775,60011
523.101,-276.939,59961
523.069,-278.103,59962
523.037,-279.267,59985
523.005,-280.432,59984
522.973,-281.597,59972
522.941,-282.762,59947
522.909,-283.927,59894
522.878,-285.092,59965
522.846,-286.257,60046
522.814,-287.422,60009
522.782,-288.588,59954
522.75,-289.754,60051
522.718,-290.92,60034
522.686,-292.086,60041
522.655,-293.252,59966
522.623,-294.418,60003
522.591,-295.584,59954
522.559,-296.751,59960
522.527,-297.918,60004
522.495,-299.084,59925
522.463,-300.251,60007
522.432,-301.419,60063
522.4,-302.586,59957
522.368,-303.753,59977
522.336,-304.921,60042
522.304,-306.089,60039
522.272,-307.256,60052
522.24,-308.424,59951
522.209,-309.592,59987
522.177,-310.761,59976
522.145,-311.929,60058
522.113,-313.098,59992
522.081,-314.266,59953
522.049,-315.435,59948
522.017,-316.604,60048
521.986,-317.773,60053
521.954,-318.943,60101
521.922,-320.112,60010
521.89,-321.282,60006
521.858,-322.451,59977
521.826,-323.621,59904
521.794,-324.791,60021
521.763,-325.961,60010
521.731,-327.132,60024
521.699,-328.302,60002
521.667,-329.472,60100
521.635,-330.643,59990
521.603,-331.814,60072
521.571,-332.985,60030
521.54,-334.156,59983
521.508,-335.327,60093
521.476,-336.499,60068
521.444,-337.67,60033
521.412,-338.842,60065
521.38,-340.014,59991
521.348,-341.186,59977
521.317,-342.358,59940
521.285,-343.53,60023
521.253,-344.703,60052
521.221,-345.875,59883
521.189,-347.048,59949
521.157,-348.221,60000
521.125,-349.394,59981
521.094,-350.567,59957
521.062,-351.74,59920
521.03,-352.914,59996
520.998,-354.087,59936
520.966,-355.261,59970
520.934,-356.435,59935
520.902,-357.609,59981
520.871,-358.783,60039
520.839,-359.957,60002
520.807,-361.132,60036
520.775,-362.306,59936
520.743,-363.481,59935
520.711,-364.656,60104
520.679,-365.831,59939
520.648,-367.006,60003
520.616,-368.181,60038
520.584,-369.357,60047
520.552,-370.532,59988
520.52,-371.708,59925
520.488,-372.884,59930
520.456,-374.06,59980
520.425,-375.236,60016
520.393,-376.412,59961
520.361,-377.589,60009
520.329,-378.765,60048
520.297,-379.942,60010
520.265,-381.119,60002
520.233,-382.296,59967
520.202,-383.473,59948
520.17,-384.65,59974
520.138,-385.828,60029
520.106,-387.005,59985
520.074,-388.183,60043
520.042,-389.361,60003
520.01,-390.539,60028
519.979,-391.717,59961
519.947,-392.895,59969
519.915,-394.074,59994
519.883,-395.252,59904
519.851,-396.431,60030
519.819,-397.61,59932
519.787,-398.789,59975
519.756,-399.968,59981
519.724,-401.148,60035
519.692,-402.327,59986
519.66,-403.507,59982
519.628,-404.686,59997
519.596,-405.866,60026
519.564,-407.046,59961
519.533,-408.227,59946
519.501,-409.407,60063
519.469,-410.587,59958
519.437,-411.768,59951
519.405,-412.949,60015
519.373,-414.13,60016
519.341,-415.311,60010
519.31,-416.492,59988
519.278,-417.673,59949
519.246,-418.855,60032
519.214,-420.037,60034
519.182,-421.218,59978
519.15,-422.4,60038
519.118,-423.582,59975
519.087,-424.765,60037
519.055,-425.947,59959
519.023,-427.129,59961
518.991,-428.312,59961
518.959,-429.495,60062
518.927,-430.678,59962
518.895,-431.861,59960
518.864,-433.044,59964
518.832,-434.228,59980
518.8,-435.411,59921
518.768,-436.595,60007
518.736,-437.779,59956
518.704,-438.962,60006
518.672,-440.147,59995
518.641,-441.331,60058
518.609,-442.515,59953
518.577,-443.7,59934
518.545,-444.884,60029
518.513,-446.069,60011
518.481,-447.254,59965
518.449,-448.439,59975
518.418,-449.625,59971
518.386,-450.81,59998
518.354,-451.996,60048
518.322,-453.181,59997
518.29,-454.367,60010
518.258,-455.553,60005
518.226,-456.739,60062
518.195,-457.926,60055
518.163,-459.112,60034
518.131,-460.299,60023
518.099,-461.485,59989
518.067,-462.672,60021
518.035,-463.859,59974
518.003,-465.047,59895
517.972,-466.234,59925
517.94,-467.421,60020
517.908,-468.609,59970
517.876,-469.797,60018
517.844,-470.985,59947
517.812,-472.173,60028
517.78,-473.361,60028
517.749,-474.549,59974
517.717,-475.738,59969
517.685,-476.926,59974
517.653,-478.115,59973
517.621,-479.304,59952
517.589,-480.493,60013
517.557,-481.682,59995
517.526,-482.872,59975
517.494,-484.061,59975
517.462,-485.251,59971
517.43,-486.441,60015
517.398,-487.631,60076
517.366,-488.821,59969
517.334,-490.011,59978
517.303,-491.201,60030
517.271,-492.392,60105
517.239,-493.582,59974
517.207,-494.773,59970
517.175,-495.964,60020
517.143,-497.155,60000
517.111,-498.347,59933
517.08,-499.538,59934
517.048,-500.73,60020
517.016,-501.921,60017
516.984,-503.113,59978
516.952,-504.305,59996
516.92,-505.497,59990
516.889,-506.69,60003
516.857,-507.882,59984
516.825,-509.075,59989
516.793,-510.267,59965
516.761,-511.46,60030
516.729,-512.653,59924
516.697,-513.847,59937
516.666,-515.04,59961
516.634,-516.233,60035
516.602,-517.427,60027
516.57,-518.621,59979
516.538,-519.815,60003
516.506,-521.009,60112
516.474,-522.203,60028
516.443,-523.397,60011
516.411,-524.592,59993
516.379,-525.786,59981
516.347,-526.981,60054
516.315,-528.176,59960
516.283,-529.371,60024
516.251,-530.567,59979
516.22,-531.762,59972
516.188,-532.957,59965
516.156,-534.153,59929
516.124,-535.349,59991
516.092,-536.545,59937
516.06,-537.741,60011
516.028,-538.937,60027
515.997,-540.134,60101
515.965,-541.33,59992
515.933,-542.527,59967
515.901,-543.724,60152
515.869,-544.921,59950
515.837,-546.118,59931
515.805,-547.315,59975
515.774,-548.513,60040
515.742,-549.71,59972
515.71,-550.908,60049
515.678,-552.106,59954
515.646,-553.304,59994
515.614,-554.502,60029
515.582,-555.701,60007
515.551,-556.899,59924
515.519,-558.098,59986
515.487,-559.297,60041
515.455,-560.496,60028
515.423,-561.695,60100
515.391,-562.894,59949
515.359,-564.093,59928
515.328,-565.293,60011
515.296,-566.492,60048
515.264,-567.692,60069
515.232,-568.892,59979
515.2,-570.092,59964
515.168,-571.293,60005
515.136,-572.493,60033
515.105,-573.694,60032
515.073,-574.894,60012
515.041,-576.095,59982
515.009,-577.296,59954
514.977,-578.497,59960
514.945,-579.699,59989
514.913,-580.9,60003
514.882,-582.102,60091
514.85,-583.304,59972
514.818,-584.505,59963
514.786,-585.708,59998
514.754,-586.91,60009
514.722,-588.112,60021
514.69,-589.315,59996
514.659,-590.517,60037
514.627,-591.72,60047
514.595,-592.923,59961
514.563,-594.126,60009
514.531,-595.329,60024
514.499,-596.533,60045
514.467,-597.736,59988
514.436,-598.94,59915
514.404,-600.144,60005
514.372,-601.348,60006
514.34,-602.552,59964
514.308,-603.756,59955
514.276,-604.961,60007
514.244,-606.165,60037
514.213,-607.37,59949
514.181,-608.575,59948
514.149,-609.78,59982
514.117,-610.985,59941
514.085,-612.19,60029
514.053,-613.396,59947
514.021,-614.602,59977
513.99,-615.807,59970
513.958,-617.013,60060
513.926,-618.219,60053
513.894,-619.426,59974
513.862,-620.632,59966
513.83,-621.839,60039
513.798,-623.045,60040
513.767,-624.252,60074
513.735,-625.459,60020
513.703,-626.666,60015
513.671,-627.873,59952
513.639,-629.081,60019
513.607,-630.288,59999
513.575,-631.496,59985
513.544,-632.704,59954
513.512,-633.912,60014
513.48,-635.12,60017
513.448,-636.329,59968
513.416,-637.537,60022
513.384,-638.746,59996
513.352,-639.954,59912
513.321,-641.163,59997
513.289,-642.372,59985
513.257,-643.582,59922
513.225,-644.791,60005
513.193,-646.001,59917
513.161,-647.21,59936
513.129,-648.42,59971
513.098,-649.63,59974
513.066,-650.84,59934
513.034,-652.05,59964
513.002,-653.261,60047
512.97,-654.472,59990
512.938,-655.682,60009
512.906,-656.893,59922
512.875,-658.104,59942
512.843,-659.315,60045
512.811,-660.527,60012
512.779,-661.738,59892
512.747,-662.95,59903
512.715,-664.162,59961
512.683,-665.374,60043
512.652,-666.586,59965
512.62,-667.798,59973
512.588,-669.01,60019
512.556,-670.223,59949
512.524,-671.435,59952
512.492,-672.648,60047
512.46,-673.861,59929
512.429,-675.074,60087
512.397,-676.288,60031
512.365,-677.501,60016
512.333,-678.715,59965
512.301,-679.928,59963
512.269,-681.142,60007
512.237,-682.356,60023
512.206,-683.571,59984
512.174,-684.785,60010
512.142,-685.999,60009
512.11,-687.214,59964
512.078,-688.429,59981
512.046,-689.644,60075
512.014,-690.859,59984
511.983,-692.074,60052
511.951,-693.29,59984
511.919,-694.505,60064
511.887,-695.721,60005
511.855,-696.937,59979
511.823,-698.153,60038
511.791,-699.369,59981
511.76,-700.585,59965
511.728,-701.802,59836
511.696,-703.018,59993
511.664,-704.235,59960
511.632,-705.452,60014
511.6,-706.669,59995
511.568,-707.886,60019
511.537,-709.104,60014
511.505,-710.321,60033
511.473,-711.539,60041
511.441,-712.757,59986
511.409,-713.975,60013
511.377,-715.193,60003
511.345,-716.411,60006
511.314,-717.63,60002
511.282,-718.848,60014
511.25,-720.067,59960
511.218,-721.286,59976
511.186,-722.505,59944
511.154,-723.724,60004
511.122,-724.943,59970
511.091,-726.163,60013
511.059,-727.383,60005
511.027,-728.602,60005
510.995,-729.822,59985
510.963,-731.042,60039
510.931,-732.263,59925
510.899,-733.483,60054
510.868,-734.704,59971
510.836,-735.924,60074
510.804,-737.145,59981
510.772,-738.366,59991
510.74,-739.587,60049
510.708,-740.809,60022
510.676,-742.03,59976
510.645,-743.252,59910
510.613,-744.474,60005
510.581,-745.696,59980
510.549,-746.918,60015
510.517,-748.14,60023
510.485,-749.362,60038
510.453,-750.585,59860
510.422,-751.808,60010
510.39,-753.03,59969
510.358,-754.253,59940
510.326,-755.477,59932
510.294,-756.7,60027
510.262,-757.923,60034
510.23,-759.147,60015
510.199,-760.371,59950
510.167,-761.595,60042
510.135,-762.819,60026
510.103,-764.043,60003
510.071,-765.267,59964
510.039,-766.492,59992
510.007,-767.717,59961
509.976,-768.941,59997
509.944,-770.166,59971
509.912,-771.392,59984
524.109,-240.143,59806
524.078,-241.303,59958
524.046,-242.462,60021
524.014,-243.623,60029
523.982,-244.783,60053
523.95,-245.943,59937
523.918,-247.104,59943
523.886,-248.264,60037
523.855,-249.425,59953
523.823,-250.586,59994
523.791,-251.747,59976
523.759,-252.908,60018
523.727,-254.07,59994
523.695,-255.231,60035
523.663,-256.393,60025
523.632,-257.555,59987
523.6,-258.717,60034
523.568,-259.879,60036
523.536,-261.041,60018
523.504,-262.203,60030
523.472,-263.366,60029
523.44,-264.528,59981
523.409,-265.691,59982
523.377,-266.854,59918
523.345,-268.017,60013
523.313,-269.18,59952
523.281,-270.344,59909
523.249,-271.507,59996
523.217,-272.671,60042
523.186,-273.835,59967
523.154,-274.999,59939
523.122,-276.163,59952
523.09,-277.327,59974
523.058,-278.491,60039
523.026,-279.656,59973
522.994,-280.82,60116
522.963,-281.985,59965
522.931,-283.15,59952
522.899,-284.315,60024
522.867,-285.48,59952
522.835,-286.645,59954
522.803,-287.811,59948
522.771,-288.977,60074
522.74,-290.142,60023
522.708,-291.308,59999
522.676,-292.474,60049
522.644,-293.64,59928
522.612,-294.807,60019
522.58,-295.973,59958
522.548,-297.14,60019
522.517,-298.307,59993
522.485,-299.473,59961
522.453,-300.64,59966
522.421,-301.808,60044
522.389,-302.975,59975
522.357,-304.142,59969
522.325,-305.31,59955
522.294,-306.478,60014
522.262,-307.646,60065
522.23,-308.814,59895
522.198,-309.982,60056
522.166,-311.15,60072
522.134,-312.319,60013
522.102,-313.487,59960
522.071,-314.656,59990
522.039,-315.825,59975
522.007,-316.994,59906
521.975,-318.163,59944
521.943,-319.332,59993
521.911,-320.502,60004
521.879,-321.671,60022
521.848,-322.841,60020
521.816,-324.011,60091
521.784,-325.181,59921
521.752,-326.351,59954
521.72,-327.522,60040
521.688,-328.692,60056
521.656,-329.863,60079
521.625,-331.033,59963
521.593,-332.204,59942
521.561,-333.375,59992
521.529,-334.547,59946
521.497,-335.718,59951
521.465,-336.889,60037
521.433,-338.061,60020
521.402,-339.233,59992
521.37,-340.405,59987
521.338,-341.577,60013
521.306,-342.749,60067
521.274,-343.921,59942
521.242,-345.094,59975
521.21,-346.266,59952
521.179,-347.439,59983
521.147,-348.612,59952
521.115,-349.785,60009
521.083,-350.958,59989
521.051,-352.131,59996
521.019,-353.305,59975
520.987,-354.478,60031
520.956,-355.652,60001
520.924,-356.826,60002
520.892,-358,59948
520.86,-359.174,59915
520.828,-360.349,59864
520.796,-361.523,60012
520.764,-362.698,59968
520.733,-363.872,59965
520.701,-365.047,60052
520.669,-366.222,59925
520.637,-367.398,60003
520.605,-368.573,59981
520.573,-369.748,60001
520.541,-370.924,59983
520.51,-372.1,59945
520.478,-373.276,59982
520.446,-374.452,60017
520.414,-375.628,59992
520.382,-376.804,60084
520.35,-377.981,59997
520.318,-379.157,60036
520.287,-380.334,60061
520.255,-381.511,59979
520.223,-382.688,60008
520.191,-383.865,59972
520.159,-385.043,60031
520.127,-386.22,59995
520.095,-387.398,59968
520.064,-388.576,59935
520.032,-389.754,59932
520,-390.932,59973
519.968,-392.11,60022
519.936,-393.288,60001
519.904,-394.467,60058
519.872,-395.645,59971
519.841,-396.824,60035
519.809,-398.003,60025
519.777,-399.182,59976
519.745,-400.361,60021
519.713,-401.541,60012
519.681,-402.72,59956
519.649,-403.9,60042
519.618,-405.08,60048
519.586,-406.26,59965
519.554,-407.44,60062
519.522,-408.62,59998
519.49,-409.8,60007
519.458,-410.981,60041
519.426,-412.162,60008
519.395,-413.342,59982
519.363,-414.523,59978
519.331,-415.705,59969
519.299,-416.886,59928
519.267,-418.067,59957
519.235,-419.249,59988
519.203,-420.43,59998
519.172,-421.612,59940
519.14,-422.794,60064
519.108,-423.976,59986
519.076,-425.159,59903
519.044,-426.341,60026
519.012,-427.524,60003
518.98,-428.706,59961
518.949,-429.889,59963
518.917,-431.072,60014
518.885,-432.255,59993
518.853,-433.439,60020
518.821,-434.622,60041
518.789,-435.806,59953
518.757,-436.989,59993
518.726,-438.173,59964
518.694,-439.357,60003
518.662,-440.541,60008
518.63,-441.726,60033
518.598,-442.91,60033
518.566,-444.095,59943
518.534,-445.279,60056
518.503,-446.464,59988
518.471,-447.649,60049
518.439,-448.835,59980
518.407,-450.02,59995
518.375,-451.205,59955
518.343,-452.391,60035
518.311,-453.577,59962
518.28,-454.763,59988
518.248,-455.949,60032
518.216,-457.135,60039
518.184,-458.321,59981
518.152,-459.508,60008
518.12,-460.694,60035
518.088,-461.881,60025
518.057,-463.068,59946
518.025,-464.255,59974
517.993,-465.442,59964
517.961,-466.63,59983
517.929,-467.817,60005
517.897,-469.005,60008
517.865,-470.193,59988
517.834,-471.381,59991
517.802,-472.569,60027
517.77,-473.757,59995
517.738,-474.945,60091
517.706,-476.134,59982
517.674,-477.323,60023
517.642,-478.511,60038
517.611,-479.7,60053
517.579,-480.889,60040
517.547,-482.079,60042
517.515,-483.268,59983
517.483,-484.458,60046
517.451,-485.647,60044
517.419,-486.837,59952
517.388,-488.027,59967
517.356,-489.217,59949
517.324,-490.408,59951
517.292,-491.598,59990
517.26,-492.789,59965
517.228,-493.979,59973
517.196,-495.17,60036
517.165,-496.361,60050
517.133,-497.552,59999
517.101,-498.744,59992
517.069,-499.935,60049
517.037,-501.127,60072
517.005,-502.319,60022
516.973,-503.511,60011
516.942,-504.703,59974
516.91,-505.895,60078
516.878,-507.087,59964
516.846,-508.28,59987
516.814,-509.472,60000
516.782,-510.665,60028
516.75,-511.858,59981
516.719,-513.051,59951
516.687,-514.244,59989
516.655,-515.438,60032
516.623,-516.631,59964
516.591,-517.825,59962
516.559,-519.019,59963
516.527,-520.213,59920
516.496,-521.407,60015
516.464,-522.601,59943
516.432,-523.795,59954
516.4,-524.99,59981
516.368,-526.185,59965
516.336,-527.38,60015
516.304,-528.575,59971
516.273,-529.77,59918
516.241,-530.965,59918
516.209,-532.16,59934
516.177,-533.356,59969
516.145,-534.552,59957
516.113,-535.748,60039
516.081,-536.944,59980
516.05,-538.14,60015
516.018,-539.336,59934
515.986,-540.533,59996
515.954,-541.729,59944
515.922,-542.926,59992
515.89,-544.123,60011
515.858,-545.32,60007
515.827,-546.517,59923
515.795,-547.715,59974
515.763,-548.912,59974
515.731,-550.11,60003
515.699,-551.307,60004
515.667,-552.505,59911
515.635,-553.704,59967
515.604,-554.902,59900
515.572,-556.1,59976
515.54,-557.299,59984
515.508,-558.497,59968
515.476,-559.696,59994
515.444,-560.895,59965
515.412,-562.094,60034
515.381,-563.294,59962
515.349,-564.493,59931
515.317,-565.693,60095
515.285,-566.892,60005
515.253,-568.092,59934
515.221,-569.292,60022
515.189,-570.492,59979
515.158,-571.693,60014
515.126,-572.893,60001
515.094,-574.094,59949
515.062,-575.295,60073
515.03,-576.496,59949
514.998,-577.697,59979
514.966,-578.898,59958
514.935,-580.099,59977
514.903,-581.301,59958
514.871,-582.502,60019
514.839,-583.704,60016
514.807,-584.906,59913
514.775,-586.108,60049
514.743,-587.31,59985
514.712,-588.513,59966
514.68,-589.715,59922
514.648,-590.918,60035
514.616,-592.121,59988
514.584,-593.324,59999
514.552,-594.527,59972
514.52,-595.73,60037
514.489,-596.934,59981
514.457,-598.137,60021
514.425,-599.341,59968
514.393,-600.545,59949
514.361,-601.749,60013
514.329,-602.953,60028
514.297,-604.158,59910
514.266,-605.362,60022
514.234,-606.567,60010
514.202,-607.772,59978
514.17,-608.977,60003
514.138,-610.182,60006
514.106,-611.387,60046
514.074,-612.592,60060
514.043,-613.798,59898
514.011,-615.003,60015
513.979,-616.209,59939
513.947,-617.415,59986
513.915,-618.621,59899
513.883,-619.828,59945
513.851,-621.034,60016
513.82,-622.241,60002
513.788,-623.447,59975
513.756,-624.654,59992
513.724,-625.861,59968
513.692,-627.069,60016
513.66,-628.276,60030
513.628,-629.483,60025
513.597,-630.691,59975
513.565,-631.899,59987
513.533,-633.107,59980
513.501,-634.315,59938
513.469,-635.523,59994
513.437,-636.731,60032
513.405,-637.94,60013
513.374,-639.149,60069
513.342,-640.357,60013
513.31,-641.566,59962
513.278,-642.776,59968
513.246,-643.985,59987
513.214,-645.194,60021
513.182,-646.404,59997
513.151,-647.614,60049
513.119,-648.823,59984
513.087,-650.033,59894
513.055,-651.244,59968
513.023,-652.454,59933
512.991,-653.664,59956
512.959,-654.875,60042
512.928,-656.086,59983
512.896,-657.297,59985
512.864,-658.508,59997
512.832,-659.719,64279
512.8,-660.93,59976
512.768,-662.142,59980
512.736,-663.354,60012
512.705,-664.566,60064
512.673,-665.778,60008
512.641,-666.99,59980
512.609,-668.202,60034
512.577,-669.414,60014
512.545,-670.627,60036
512.513,-671.84,59936
512.482,-673.053,59995
512.45,-674.266,59915
512.418,-675.479,59944
512.386,-676.692,60020
512.354,-677.906,59931
512.322,-679.119,59958
512.29,-680.333,60000
512.259,-681.547,59880
512.227,-682.761,59922
512.195,-683.975,60004
512.163,-685.19,59972
512.131,-686.404,59935
512.099,-687.619,60006
512.067,-688.834,59929
512.036,-690.049,59975
512.004,-691.264,60013
511.972,-692.479,59995
511.94,-693.695,60008
511.908,-694.91,59982
511.876,-696.126,59893
511.844,-697.342,59866
511.813,-698.558,60001
511.781,-699.774,59985
511.749,-700.991,59988
511.717,-702.207,59959
511.685,-703.424,60017
511.653,-704.641,60037
511.621,-705.858,60003
511.59,-707.075,60062
511.558,-708.292,59932
511.526,-709.51,59967
511.494,-710.727,60015
511.462,-711.945,59989
511.43,-713.163,60007
511.398,-714.381,60044
511.367,-715.599,59923
511.335,-716.817,60053
511.303,-718.036,59986
511.271,-719.254,60004
511.239,-720.473,59989
511.207,-721.692,60004
511.175,-722.911,59927
511.144,-724.13,60040
511.112,-725.35,59990
511.08,-726.569,60009
511.048,-727.789,60018
511.016,-729.009,59993
510.984,-730.229,60025
510.952,-731.449,60080
510.921,-732.669,59986
510.889,-733.89,60024
510.857,-735.111,60000
510.825,-736.331,59982
510.793,-737.552,60051
510.761,-738.773,59990
510.729,-739.995,59971
510.698,-741.216,59987
510.666,-742.437,60035
510.634,-743.659,60072
510.602,-744.881,60063
510.57,-746.103,60000
510.538,-747.325,59991
510.506,-748.547,59982
510.475,-749.77,59946
510.443,-750.992,60025
510.411,-752.215,60000
510.379,-753.438,59989
510.347,-754.661,59976
510.315,-755.884,59967
510.283,-757.108,59999
510.252,-758.331,59989
510.22,-759.555,59979
510.188,-760.779,59985
510.156,-762.003,60010
510.124,-763.227,60029
510.092,-764.451,59955
510.06,-765.676,60026
510.029,-766.9,59925
509.997,-768.125,60022
509.965,-769.35,59990
509.933,-770.575,59982
509.901,-771.8,59972
524.099,-240.529,59884
524.067,-241.689,60122
524.035,-242.849,60037
524.003,-244.009,60016
523.971,-245.17,59985
523.94,-246.33,60005
523.908,-247.491,60048
523.876,-248.651,60060
523.844,-249.812,59919
523.812,-250.973,59949
523.78,-252.134,59982
523.748,-253.296,60060
523.717,-254.457,60050
523.685,-255.618,59969
523.653,-256.78,59893
523.621,-257.942,59944
523.589,-259.104,60059
523.557,-260.266,60023
523.525,-261.428,59943
523.494,-262.591,60036
523.462,-263.753,59909
523.43,-264.916,60042
523.398,-266.079,60000
523.366,-267.242,59964
523.334,-268.405,59990
523.302,-269.568,60017
523.271,-270.732,59956
523.239,-271.895,60016
523.207,-273.059,59960
523.175,-274.223,60038
523.143,-275.387,59982
523.111,-276.551,59986
523.079,-277.715,60012
523.048,-278.879,60010
523.016,-280.044,60042
522.984,-281.208,60014
522.952,-282.373,59956
522.92,-283.538,60025
522.888,-284.703,59953
522.856,-285.869,59986
522.825,-287.034,60024
522.793,-288.199,60060
522.761,-289.365,60033
522.729,-290.531,60004
522.697,-291.697,60021
522.665,-292.863,59977
522.633,-294.029,59902
522.602,-295.196,59921
522.57,-296.362,59968
522.538,-297.529,59961
522.506,-298.695,60002
522.474,-299.862,59979
522.442,-301.03,60002
522.41,-302.197,59934
522.379,-303.364,59926
522.347,-304.532,60035
522.315,-305.699,60047
522.283,-306.867,59924
522.251,-308.035,60001
522.219,-309.203,60054
522.187,-310.371,59969
522.156,-311.54,59891
522.124,-312.708,60015
522.092,-313.877,60010
522.06,-315.046,60041
522.028,-316.215,60000
521.996,-317.384,59974
521.964,-318.553,60021
521.933,-319.722,59978
521.901,-320.892,60027
521.869,-322.061,60092
521.837,-323.231,60005
521.805,-324.401,60054
521.773,-325.571,60015
521.741,-326.741,59963
521.71,-327.912,59957
521.678,-329.082,60033
521.646,-330.253,59985
521.614,-331.424,60018
521.582,-332.595,60093
521.55,-333.766,60052
521.518,-334.937,60026
521.487,-336.108,59996
521.455,-337.28,59947
521.423,-338.451,59921
521.391,-339.623,59972
521.359,-340.795,60097
521.327,-341.967,59947
521.295,-343.14,59941
521.264,-344.312,59979
521.232,-345.484,59947
521.2,-346.657,59943
521.168,-347.83,59994
521.136,-349.003,60007
521.104,-350.176,59963
521.072,-351.349,60064
521.041,-352.522,59977
521.009,-353.696,59920
520.977,-354.87,59997
520.945,-356.043,60086
520.913,-357.217,60033
520.881,-358.391,59963
520.849,-359.566,59928
520.818,-360.74,59964
520.786,-361.915,60012
520.754,-363.089,60007
520.722,-364.264,60052
520.69,-365.439,60029
520.658,-366.614,60021
520.626,-367.789,59977
520.595,-368.965,60063
520.563,-370.14,60047
520.531,-371.316,60048
520.499,-372.492,59928
520.467,-373.668,59967
520.435,-374.844,59971
520.403,-376.02,60094
520.372,-377.196,59997
520.34,-378.373,60023
520.308,-379.55,60045
520.276,-380.726,60077
520.244,-381.903,60000
520.212,-383.081,59993
520.18,-384.258,60010
520.149,-385.435,59974
520.117,-386.613,60039
520.085,-387.79,60000
520.053,-388.968,60010
520.021,-390.146,59998
519.989,-391.324,59946
519.957,-392.503,59936
519.926,-393.681,60010
519.894,-394.86,59977
519.862,-396.038,59951
519.83,-397.217,60067
519.798,-398.396,59999
519.766,-399.575,59902
519.734,-400.755,60072
519.703,-401.934,60029
519.671,-403.113,60046
519.639,-404.293,60000
519.607,-405.473,60041
519.575,-406.653,59924
519.543,-407.833,60025
519.511,-409.013,59983
519.48,-410.194,60065
519.448,-411.375,60065
519.416,-412.555,59951
519.384,-413.736,60032
519.352,-414.917,59982
519.32,-416.098,59979
519.288,-417.28,59992
519.257,-418.461,59996
519.225,-419.643,60013
519.193,-420.824,59942
519.161,-422.006,59987
519.129,-423.188,59998
519.097,-424.37,60063
519.065,-425.553,60012
519.034,-426.735,59922
519.002,-427.918,60042
518.97,-429.101,59972
518.938,-430.283,60028
518.906,-431.467,60049
518.874,-432.65,60061
518.842,-433.833,60018
518.811,-435.017,60034
518.779,-436.2,60049
518.747,-437.384,59968
518.715,-438.568,60036
518.683,-439.752,60000
518.651,-440.936,60061
518.619,-442.12,60024
518.588,-443.305,59989
518.556,-444.49,60029
518.524,-445.674,59954
518.492,-446.859,60029
518.46,-448.044,60032
518.428,-449.23,59942
518.396,-450.415,60014
518.365,-451.6,60026
518.333,-452.786,60057
518.301,-453.972,60059
518.269,-455.158,59974
518.237,-456.344,59987
518.205,-457.53,60016
518.173,-458.717,59963
518.142,-459.903,59980
518.11,-461.09,59899
518.078,-462.277,59927
518.046,-463.464,59983
518.014,-464.651,59973
517.982,-465.838,60017
517.95,-467.025,59993
517.919,-468.213,60054
517.887,-469.401,60061
517.855,-470.589,59962
517.823,-471.777,60074
517.791,-472.965,59938
517.759,-474.153,60016
517.727,-475.341,60018
517.696,-476.53,59998
517.664,-477.719,60013
517.632,-478.908,60081
517.6,-480.097,60074
517.568,-481.286,59999
517.536,-482.475,60014
517.504,-483.665,60047
517.473,-484.854,60002
517.441,-486.044,59996
517.409,-487.234,59990
517.377,-488.424,60050
517.345,-489.614,59965
517.313,-490.804,59981
517.281,-491.995,59953
517.25,-493.186,59961
517.218,-494.376,60019
517.186,-495.567,59978
517.154,-496.758,59982
517.122,-497.95,60079
517.09,-499.141,60037
517.058,-500.332,60064
517.027,-501.524,60024
516.995,-502.716,60061
516.963,-503.908,60018
516.931,-505.1,59974
516.899,-506.292,59981
516.867,-507.485,59953
516.835,-508.677,59980
516.804,-509.87,59971
516.772,-511.063,59914
516.74,-512.256,59950
516.708,-513.449,59962
516.676,-514.642,60020
516.644,-515.835,59958
516.612,-517.029,60042
516.581,-518.223,60040
516.549,-519.417,59936
516.517,-520.611,59987
516.485,-521.805,59950
516.453,-522.999,60079
516.421,-524.194,59995
516.389,-525.388,60008
516.358,-526.583,60058
516.326,-527.778,60038
516.294,-528.973,59979
516.262,-530.168,59932
516.23,-531.363,59950
516.198,-532.559,60024
516.166,-533.755,59979
516.135,-534.95,59941
516.103,-536.146,60015
516.071,-537.342,59957
516.039,-538.539,59995
516.007,-539.735,59973
515.975,-540.931,60019
515.943,-542.128,59986
515.912,-543.325,59943
515.88,-544.522,60026
515.848,-545.719,60001
515.816,-546.916,59984
515.784,-548.114,60024
515.752,-549.311,59983
515.72,-550.509,59952
515.689,-551.707,59990
515.657,-552.905,60045
515.625,-554.103,59931
515.593,-555.301,60005
515.561,-556.5,59988
515.529,-557.698,60062
515.497,-558.897,60069
515.466,-560.096,59996
515.434,-561.295,60012
515.402,-562.494,60022
515.37,-563.693,59933
515.338,-564.893,59977
515.306,-566.093,60058
515.274,-567.292,59939
515.243,-568.492,59902
515.211,-569.692,60011
515.179,-570.893,59978
515.147,-572.093,59995
515.115,-573.293,59998
515.083,-574.494,59941
515.051,-575.695,59994
515.02,-576.896,59936
514.988,-578.097,59952
514.956,-579.298,59946
514.924,-580.5,60015
514.892,-581.701,60037
514.86,-582.903,59986
514.828,-584.105,59969
514.797,-585.307,59955
514.765,-586.509,60082
514.733,-587.711,60079
514.701,-588.914,60043
514.669,-590.116,59914
514.637,-591.319,59952
514.605,-592.522,59968
514.574,-593.725,59981
514.542,-594.928,59939
514.51,-596.132,59993
514.478,-597.335,60089
514.446,-598.539,59997
514.414,-599.743,59928
514.382,-600.946,59983
514.351,-602.151,60004
514.319,-603.355,59926
514.287,-604.559,60035
514.255,-605.764,60031
514.223,-606.968,59903
514.191,-608.173,60045
514.159,-609.378,60009
514.128,-610.583,60023
514.096,-611.789,60031
514.064,-612.994,59940
514.032,-614.2,60007
514,-615.405,60045
513.968,-616.611,59960
513.936,-617.817,59978
513.905,-619.024,59999
513.873,-620.23,59890
513.841,-621.436,60021
513.809,-622.643,59986
513.777,-623.85,59942
513.745,-625.057,60002
513.713,-626.264,59895
513.682,-627.471,59914
513.65,-628.678,59946
513.618,-629.886,59956
513.586,-631.094,60010
513.554,-632.301,59977
513.522,-633.509,60055
513.49,-634.717,59997
513.459,-635.926,60035
513.427,-637.134,59992
513.395,-638.343,59948
513.363,-639.552,59915
513.331,-640.76,60055
513.299,-641.969,60012
513.267,-643.179,60007
513.236,-644.388,60054
513.204,-645.597,60013
513.172,-646.807,59987
513.14,-648.017,59990
513.108,-649.227,60018
513.076,-650.437,60051
513.044,-651.647,59949
513.013,-652.857,59935
512.981,-654.068,60024
512.949,-655.279,60003
512.917,-656.489,60053
512.885,-657.7,60036
512.853,-658.912,59991
512.821,-660.123,60046
512.79,-661.334,60013
512.758,-662.546,60044
512.726,-663.758,59910
512.694,-664.97,60017
512.662,-666.182,59935
512.63,-667.394,60040
512.598,-668.606,59908
512.567,-669.819,59994
512.535,-671.031,60023
512.503,-672.244,59909
512.471,-673.457,59989
512.439,-674.67,60055
512.407,-675.883,59933
512.375,-677.097,59939
512.344,-678.31,59942
512.312,-679.524,60075
512.28,-680.738,59971
512.248,-681.952,60010
512.216,-683.166,59980
512.184,-684.38,59996
512.152,-685.595,59984
512.121,-686.809,59984
512.089,-688.024,59964
512.057,-689.239,59994
512.025,-690.454,60083
511.993,-691.669,60014
511.961,-692.884,60028
511.929,-694.1,60081
511.898,-695.316,59999
511.866,-696.531,60010
511.834,-697.747,59961
511.802,-698.964,59967
511.77,-700.18,60016
511.738,-701.396,59996
511.706,-702.613,60008
511.675,-703.83,60018
511.643,-705.046,60040
511.611,-706.263,59988
511.579,-707.481,59990
511.547,-708.698,59966
511.515,-709.915,60099
511.483,-711.133,59934
511.452,-712.351,59968
511.42,-713.569,60048
511.388,-714.787,59990
511.356,-716.005,60031
511.324,-717.223,59974
511.292,-718.442,60022
511.26,-719.661,60019
511.229,-720.879,60074
511.197,-722.098,60052
511.165,-723.318,59986
511.133,-724.537,60023
511.101,-725.756,59970
511.069,-726.976,59973
511.037,-728.196,60054
511.006,-729.416,59988
510.974,-730.636,59986
510.942,-731.856,59950
510.91,-733.076,59957
510.878,-734.297,60001
510.846,-735.517,59966
510.814,-736.738,60020
510.783,-737.959,60020
510.751,-739.18,59970
510.719,-740.402,59972
510.687,-741.623,59981
510.655,-742.845,59962
510.623,-744.066,59892
510.591,-745.288,60046
510.56,-746.51,60014
510.528,-747.733,59969
510.496,-748.955,59979
510.464,-750.177,59987
510.432,-751.4,60088
510.4,-752.623,59943
510.368,-753.846,59994
510.337,-755.069,60051
510.305,-756.292,59965
510.273,-757.516,59923
510.241,-758.739,59953
510.209,-759.963,60041
510.177,-761.187,59974
510.145,-762.411,60021
510.114,-763.635,60022
510.082,-764.859,59959
510.05,-766.084,60057
510.018,-767.308,59976
509.986,-768.533,60049
509.954,-769.758,60017
509.922,-770.983,60014
509.901,-771.8,59966