File: tomke/20240809_Si_on_TiO2/20240809/raw_data/Si_onTiO2_70mA_30mW_30sec_5acc_517nm.txt
Wavelength(nm), Raman shift(cm^-1), Intensity(counts)
525.364,-194.586,72639
525.301,-196.846,72978
525.239,-199.106,73063
525.177,-201.367,73436
525.114,-203.629,73259
525.052,-205.891,72953
524.99,-208.154,73044
524.927,-210.417,73236
524.865,-212.681,73265
524.802,-214.945,72939
524.74,-217.21,73400
524.678,-219.475,73276
524.615,-221.741,73556
524.553,-224.008,73694
524.491,-226.275,73737
524.428,-228.542,73526
524.366,-230.81,73895
524.304,-233.079,73912
524.241,-235.348,73852
524.179,-237.618,73703
524.116,-239.888,73752
524.054,-242.159,73816
523.992,-244.43,74126
523.929,-246.702,74164
523.867,-248.974,74393
523.805,-251.247,74541
523.742,-253.52,75072
523.68,-255.794,75706
523.617,-258.069,76040
523.555,-260.344,77100
523.493,-262.62,78409
523.43,-264.896,80896
523.368,-267.173,84079
523.306,-269.45,87320
523.243,-271.728,92801
523.181,-274.006,97792
523.119,-276.285,103340
523.056,-278.564,109691
522.994,-280.844,113408
522.931,-283.125,116901
522.869,-285.406,120085
522.807,-287.688,121829
522.744,-289.97,123491
522.682,-292.252,124500
522.62,-294.536,124889
522.557,-296.82,125012
522.495,-299.104,125445
522.432,-301.389,125768
522.37,-303.674,125313
522.308,-305.96,124750
522.245,-308.247,124513
522.183,-310.534,124714
522.121,-312.821,124544
522.058,-315.11,125255
521.996,-317.398,124296
521.933,-319.687,123642
521.871,-321.977,123281
521.809,-324.268,123723
521.746,-326.559,123049
521.684,-328.85,122854
521.622,-331.142,122270
521.559,-333.434,123064
521.497,-335.728,122480
521.435,-338.021,121713
521.372,-340.315,122512
521.31,-342.61,121709
521.247,-344.905,121633
521.185,-347.201,121499
521.123,-349.498,121335
521.06,-351.795,121061
520.998,-354.092,120370
520.936,-356.39,121054
520.873,-358.689,120588
520.811,-360.988,119284
520.748,-363.287,119717
520.686,-365.588,119516
520.624,-367.889,119308
520.561,-370.19,118589
520.499,-372.492,118383
520.437,-374.794,117692
520.374,-377.097,118141
520.312,-379.401,117918
520.249,-381.705,118144
520.187,-384.009,117447
520.125,-386.315,117482
520.062,-388.62,117463
520.0,-390.927,117386
519.938,-393.234,116838
519.875,-395.541,116985
519.813,-397.849,116572
519.751,-400.158,116414
519.688,-402.467,115804
519.626,-404.776,115694
519.563,-407.086,115697
519.501,-409.397,115896
519.439,-411.708,115342
519.376,-414.02,114764
519.314,-416.333,114839
519.252,-418.646,114412
519.189,-420.959,114223
519.127,-423.273,113660
519.064,-425.588,113559
519.002,-427.903,113000
518.94,-430.219,112558
518.877,-432.535,112002
518.815,-434.852,112424
518.753,-437.169,112194
518.69,-439.487,111774
518.628,-441.806,111278
518.565,-444.125,110829
518.503,-446.445,111180
518.441,-448.765,111071
518.378,-451.086,110411
518.316,-453.407,110922
518.254,-455.729,110627
518.191,-458.051,109888
518.129,-460.374,110395
518.067,-462.698,110125
518.004,-465.022,109775
517.942,-467.347,110050
517.879,-469.672,109612
517.817,-471.998,109825
517.755,-474.324,110159
517.692,-476.651,110040
517.63,-478.978,109811
517.568,-481.306,109556
517.505,-483.635,109667
517.443,-485.964,110418
517.38,-488.294,110373
517.318,-490.624,111780
517.256,-492.955,112693
517.193,-495.286,114665
517.131,-497.618,116133
517.069,-499.951,117328
517.006,-502.284,116334
516.944,-504.618,113813
516.881,-506.952,111717
516.819,-509.287,110438
516.757,-511.622,109389
516.694,-513.958,108655
516.632,-516.294,108130
516.57,-518.631,107583
516.507,-520.969,107094
516.445,-523.307,107430
516.383,-525.646,106658
516.32,-527.985,106917
516.258,-530.325,106803
516.195,-532.665,106232
516.133,-535.006,106332
516.071,-537.348,106241
516.008,-539.69,105924
515.946,-542.033,105677
515.884,-544.376,105846
515.821,-546.72,105493
515.759,-549.064,105688
515.696,-551.409,105452
515.634,-553.755,105355
515.572,-556.101,105194
515.509,-558.448,105073
515.447,-560.795,105477
515.385,-563.143,104999
515.322,-565.491,104957
515.26,-567.84,104539
515.198,-570.189,104252
515.135,-572.539,104730
515.073,-574.89,104408
515.01,-577.241,104024
514.948,-579.593,104744
514.886,-581.945,104286
514.823,-584.298,104341
514.761,-586.652,104358
514.699,-589.006,104073
514.636,-591.361,103697
514.574,-593.716,103898
514.511,-596.072,103781
514.449,-598.428,103466
514.387,-600.785,103590
514.324,-603.142,103283
514.262,-605.5,103319
514.2,-607.859,103041
514.137,-610.218,102907
514.075,-612.578,102710
514.012,-614.938,102492
513.95,-617.299,101970
513.888,-619.661,102348
513.825,-622.023,102003
513.763,-624.385,101766
513.701,-626.749,101940
513.638,-629.112,101820
513.576,-631.477,101377
513.514,-633.842,101696
513.451,-636.207,101168
513.389,-638.573,101378
513.326,-640.94,101007
513.264,-643.307,100794
513.202,-645.675,100902
513.139,-648.043,100600
513.077,-650.412,100822
513.015,-652.782,100116
512.952,-655.152,99705
512.89,-657.523,99971
512.827,-659.894,100051
512.765,-662.266,99953
512.703,-664.638,99617
512.64,-667.011,99375
512.578,-669.385,99508
512.516,-671.759,98978
512.453,-674.134,98867
512.391,-676.509,98477
512.328,-678.885,98494
512.266,-681.261,98145
512.204,-683.638,98120
512.141,-686.016,98105
512.079,-688.394,97716
512.017,-690.773,97608
511.954,-693.152,97632
511.892,-695.532,97456
511.83,-697.913,97348
511.767,-700.294,97065
511.705,-702.676,96970
511.642,-705.058,96773
511.58,-707.441,96520
511.518,-709.824,96270
511.455,-712.208,96080
511.393,-714.593,96203
511.331,-716.978,96023
511.268,-719.364,95473
511.206,-721.75,96125
511.143,-724.137,95328
511.081,-726.525,95328
511.019,-728.913,95358
510.956,-731.301,95213
510.894,-733.691,94837
510.832,-736.08,94958
510.769,-738.471,94511
510.707,-740.862,94172
510.644,-743.253,94547
510.582,-745.646,94017
510.52,-748.038,94210
510.457,-750.432,93644
510.395,-752.826,93594
510.333,-755.22,93143
510.27,-757.615,93385
510.208,-760.011,93024
510.146,-762.407,93122
510.083,-764.804,92741
510.021,-767.201,92547
509.958,-769.599,92639
509.896,-771.998,92264
509.834,-774.397,91851
509.771,-776.797,92113
509.709,-779.197,92021
509.647,-781.598,91371
509.584,-784,91396
509.522,-786.402,91221
509.459,-788.805,91215
509.397,-791.208,91228
509.335,-793.612,91011
509.272,-796.016,90777
509.21,-798.421,90642
509.148,-800.827,90563
509.085,-803.233,90483
509.023,-805.64,89956
508.96,-808.048,89733
508.898,-810.456,89997
508.836,-812.864,89870
508.773,-815.274,89565
508.711,-817.683,89785
525.364,-194.586,72656
525.301,-196.846,73005
525.239,-199.106,73114
525.177,-201.367,73200
525.114,-203.629,73143
525.052,-205.891,73245
524.99,-208.154,73390
524.927,-210.417,73255
524.865,-212.681,73304
524.802,-214.945,73524
524.74,-217.21,73246
524.678,-219.475,73603
524.615,-221.741,73480
524.553,-224.008,73537
524.491,-226.275,73622
524.428,-228.542,73765
524.366,-230.81,74107
524.304,-233.079,73745
524.241,-235.348,73926
524.179,-237.618,73881
524.116,-239.888,73918
524.054,-242.159,74164
523.992,-244.43,74051
523.929,-246.702,74320
523.867,-248.974,74485
523.805,-251.247,74626
523.742,-253.52,74994
523.68,-255.794,75432
523.617,-258.069,76263
523.555,-260.344,77306
523.493,-262.62,78797
523.43,-264.896,80777
523.368,-267.173,83855
523.306,-269.45,88070
523.243,-271.728,92844
523.181,-274.006,98957
523.119,-276.285,104240
523.056,-278.564,109546
522.994,-280.844,113852
522.931,-283.125,117792
522.869,-285.406,120616
522.807,-287.688,122451
522.744,-289.97,124463
522.682,-292.252,125344
522.62,-294.536,125698
522.557,-296.82,125310
522.495,-299.104,126339
522.432,-301.389,125703
522.37,-303.674,125582
522.308,-305.96,125698
522.245,-308.247,125713
522.183,-310.534,125056
522.121,-312.821,124968
522.058,-315.11,125828
521.996,-317.398,125284
521.933,-319.687,124375
521.871,-321.977,124096
521.809,-324.268,124243
521.746,-326.559,124391
521.684,-328.85,123718
521.622,-331.142,123452
521.559,-333.434,123196
521.497,-335.728,123012
521.435,-338.021,123039
521.372,-340.315,122879
521.31,-342.61,122389
521.247,-344.905,122875
521.185,-347.201,122526
521.123,-349.498,122511
521.06,-351.795,122119
520.998,-354.092,121798
520.936,-356.39,122295
520.873,-358.689,120631
520.811,-360.988,120714
520.748,-363.287,120029
520.686,-365.588,119376
520.624,-367.889,120096
520.561,-370.19,119424
520.499,-372.492,119334
520.437,-374.794,119226
520.374,-377.097,118927
520.312,-379.401,118259
520.249,-381.705,118404
520.187,-384.009,118047
520.125,-386.315,117943
520.062,-388.62,117884
520.0,-390.927,117552
519.938,-393.234,117711
519.875,-395.541,117491
519.813,-397.849,117490
519.751,-400.158,117139
519.688,-402.467,116928
519.626,-404.776,117031
519.563,-407.086,116930
519.501,-409.397,116896
519.439,-411.708,116136
519.376,-414.02,116631
519.314,-416.333,115419
519.252,-418.646,115050
519.189,-420.959,115184
519.127,-423.273,114057
519.064,-425.588,114166
519.002,-427.903,113823
518.94,-430.219,113732
518.877,-432.535,112353
518.815,-434.852,112673
518.753,-437.169,112421
518.69,-439.487,112394
518.628,-441.806,112084
518.565,-444.125,111776
518.503,-446.445,111899
518.441,-448.765,111411
518.378,-451.086,111411
518.316,-453.407,111209
518.254,-455.729,110898
518.191,-458.051,110850
518.129,-460.374,110330
518.067,-462.698,110713
518.004,-465.022,110378
517.942,-467.347,110148
517.879,-469.672,110061
517.817,-471.998,110913
517.755,-474.324,110512
517.692,-476.651,110411
517.63,-478.978,110455
517.568,-481.306,110304
517.505,-483.635,110458
517.443,-485.964,111170
517.38,-488.294,111520
517.318,-490.624,112370
517.256,-492.955,113494
517.193,-495.286,115886
517.131,-497.618,117355
517.069,-499.951,117850
517.006,-502.284,117261
516.944,-504.618,114644
516.881,-506.952,112790
516.819,-509.287,110772
516.757,-511.622,109688
516.694,-513.958,109610
516.632,-516.294,108717
516.57,-518.631,108287
516.507,-520.969,108100
516.445,-523.307,107576
516.383,-525.646,108133
516.32,-527.985,107234
516.258,-530.325,107106
516.195,-532.665,106752
516.133,-535.006,106679
516.071,-537.348,106550
516.008,-539.69,106563
515.946,-542.033,106389
515.884,-544.376,106579
515.821,-546.72,106526
515.759,-549.064,106558
515.696,-551.409,106131
515.634,-553.755,105871
515.572,-556.101,106001
515.509,-558.448,105469
515.447,-560.795,105578
515.385,-563.143,105233
515.322,-565.491,105023
515.26,-567.84,105164
515.198,-570.189,104986
515.135,-572.539,104844
515.073,-574.89,105182
515.01,-577.241,104844
514.948,-579.593,105002
514.886,-581.945,104544
514.823,-584.298,105236
514.761,-586.652,104295
514.699,-589.006,104654
514.636,-591.361,104642
514.574,-593.716,104649
514.511,-596.072,104016
514.449,-598.428,103990
514.387,-600.785,103932
514.324,-603.142,104076
514.262,-605.5,103698
514.2,-607.859,103822
514.137,-610.218,103516
514.075,-612.578,103541
514.012,-614.938,102665
513.95,-617.299,102823
513.888,-619.661,102652
513.825,-622.023,102650
513.763,-624.385,102498
513.701,-626.749,102466
513.638,-629.112,102046
513.576,-631.477,102288
513.514,-633.842,102068
513.451,-636.207,101623
513.389,-638.573,101877
513.326,-640.94,101497
513.264,-643.307,101368
513.202,-645.675,101210
513.139,-648.043,100505
513.077,-650.412,100541
513.015,-652.782,100300
512.952,-655.152,100532
512.89,-657.523,100603
512.827,-659.894,100327
512.765,-662.266,100170
512.703,-664.638,100364
512.64,-667.011,100043
512.578,-669.385,99554
512.516,-671.759,99283
512.453,-674.134,98881
512.391,-676.509,99201
512.328,-678.885,98908
512.266,-681.261,98623
512.204,-683.638,98556
512.141,-686.016,98224
512.079,-688.394,98222
512.017,-690.773,97791
511.954,-693.152,98140
511.892,-695.532,97941
511.83,-697.913,97549
511.767,-700.294,97587
511.705,-702.676,97064
511.642,-705.058,97274
511.58,-707.441,96923
511.518,-709.824,96779
511.455,-712.208,96635
511.393,-714.593,96488
511.331,-716.978,96467
511.268,-719.364,96151
511.206,-721.75,96045
511.143,-724.137,95651
511.081,-726.525,95347
511.019,-728.913,95761
510.956,-731.301,95371
510.894,-733.691,95376
510.832,-736.08,94968
510.769,-738.471,95467
510.707,-740.862,95204
510.644,-743.253,94600
510.582,-745.646,94738
510.52,-748.038,94451
510.457,-750.432,94481
510.395,-752.826,93603
510.333,-755.22,94196
510.27,-757.615,93860
510.208,-760.011,93822
510.146,-762.407,93529
510.083,-764.804,92714
510.021,-767.201,93233
509.958,-769.599,92756
509.896,-771.998,92655
509.834,-774.397,92335
509.771,-776.797,92288
509.709,-779.197,91918
509.647,-781.598,92280
509.584,-784,91596
509.522,-786.402,91907
509.459,-788.805,91432
509.397,-791.208,91212
509.335,-793.612,91024
509.272,-796.016,91082
509.21,-798.421,90678
509.148,-800.827,91112
509.085,-803.233,90994
509.023,-805.64,90839
508.96,-808.048,90389
508.898,-810.456,90195
508.836,-812.864,89746
508.773,-815.274,89788
508.711,-817.683,89882
525.364,-194.586,72329
525.301,-196.846,72938
525.239,-199.106,72605
525.177,-201.367,72788
525.114,-203.629,72900
525.052,-205.891,72901
524.99,-208.154,73196
524.927,-210.417,73047
524.865,-212.681,73153
524.802,-214.945,73281
524.74,-217.21,73101
524.678,-219.475,73586
524.615,-221.741,73574
524.553,-224.008,73654
524.491,-226.275,73504
524.428,-228.542,73573
524.366,-230.81,73277
524.304,-233.079,73865
524.241,-235.348,73615
524.179,-237.618,73769
524.116,-239.888,73842
524.054,-242.159,73833
523.992,-244.43,73866
523.929,-246.702,74144
523.867,-248.974,74542
523.805,-251.247,74718
523.742,-253.52,74915
523.68,-255.794,75347
523.617,-258.069,75694
523.555,-260.344,77077
523.493,-262.62,78283
523.43,-264.896,80233
523.368,-267.173,83604
523.306,-269.45,87543
523.243,-271.728,92306
523.181,-274.006,98027
523.119,-276.285,103406
523.056,-278.564,108218
522.994,-280.844,112782
522.931,-283.125,116399
522.869,-285.406,119378
522.807,-287.688,120675
522.744,-289.97,122762
522.682,-292.252,123815
522.62,-294.536,124125
522.557,-296.82,123799
522.495,-299.104,124750
522.432,-301.389,125118
522.37,-303.674,124521
522.308,-305.96,123910
522.245,-308.247,124001
522.183,-310.534,124146
522.121,-312.821,124285
522.058,-315.11,123588
521.996,-317.398,123146
521.933,-319.687,122891
521.871,-321.977,122563
521.809,-324.268,122665
521.746,-326.559,122541
521.684,-328.85,122212
521.622,-331.142,122407
521.559,-333.434,121875
521.497,-335.728,121193
521.435,-338.021,120843
521.372,-340.315,121459
521.31,-342.61,120999
521.247,-344.905,121250
521.185,-347.201,120458
521.123,-349.498,120114
521.06,-351.795,120396
520.998,-354.092,120512
520.936,-356.39,120081
520.873,-358.689,119564
520.811,-360.988,119203
520.748,-363.287,118944
520.686,-365.588,118651
520.624,-367.889,117642
520.561,-370.19,118028
520.499,-372.492,118032
520.437,-374.794,117480
520.374,-377.097,117691
520.312,-379.401,116909
520.249,-381.705,116805
520.187,-384.009,117236
520.125,-386.315,116787
520.062,-388.62,116461
520.0,-390.927,116430
519.938,-393.234,116822
519.875,-395.541,115890
519.813,-397.849,116115
519.751,-400.158,116091
519.688,-402.467,115753
519.626,-404.776,115802
519.563,-407.086,114972
519.501,-409.397,114767
519.439,-411.708,114861
519.376,-414.02,114840
519.314,-416.333,114307
519.252,-418.646,114457
519.189,-420.959,113347
519.127,-423.273,113165
519.064,-425.588,113112
519.002,-427.903,112866
518.94,-430.219,111952
518.877,-432.535,111713
518.815,-434.852,111589
518.753,-437.169,111338
518.69,-439.487,110612
518.628,-441.806,110492
518.565,-444.125,110346
518.503,-446.445,110059
518.441,-448.765,110197
518.378,-451.086,109818
518.316,-453.407,110027
518.254,-455.729,110018
518.191,-458.051,109958
518.129,-460.374,109782
518.067,-462.698,109702
518.004,-465.022,109631
517.942,-467.347,109558
517.879,-469.672,108907
517.817,-471.998,108896
517.755,-474.324,109111
517.692,-476.651,108958
517.63,-478.978,109194
517.568,-481.306,109018
517.505,-483.635,109410
517.443,-485.964,109855
517.38,-488.294,109734
517.318,-490.624,110863
517.256,-492.955,112106
517.193,-495.286,114350
517.131,-497.618,116562
517.069,-499.951,116699
517.006,-502.284,115395
516.944,-504.618,113133
516.881,-506.952,111263
516.819,-509.287,110208
516.757,-511.622,108484
516.694,-513.958,107738
516.632,-516.294,107991
516.57,-518.631,107471
516.507,-520.969,106596
516.445,-523.307,106977
516.383,-525.646,106030
516.32,-527.985,106274
516.258,-530.325,106035
516.195,-532.665,105740
516.133,-535.006,105283
516.071,-537.348,105874
516.008,-539.69,105006
515.946,-542.033,105208
515.884,-544.376,105340
515.821,-546.72,105354
515.759,-549.064,105213
515.696,-551.409,104874
515.634,-553.755,104850
515.572,-556.101,104651
515.509,-558.448,104321
515.447,-560.795,104195
515.385,-563.143,104447
515.322,-565.491,104226
515.26,-567.84,104674
515.198,-570.189,103477
515.135,-572.539,103586
515.073,-574.89,104009
515.01,-577.241,103722
514.948,-579.593,104103
514.886,-581.945,103451
514.823,-584.298,103789
514.761,-586.652,103727
514.699,-589.006,103728
514.636,-591.361,103332
514.574,-593.716,103422
514.511,-596.072,103110
514.449,-598.428,102826
514.387,-600.785,103016
514.324,-603.142,102995
514.262,-605.5,102429
514.2,-607.859,102400
514.137,-610.218,102709
514.075,-612.578,102453
514.012,-614.938,101885
513.95,-617.299,102636
513.888,-619.661,101620
513.825,-622.023,101568
513.763,-624.385,101331
513.701,-626.749,101298
513.638,-629.112,101096
513.576,-631.477,101318
513.514,-633.842,100464
513.451,-636.207,101214
513.389,-638.573,100030
513.326,-640.94,100146
513.264,-643.307,100337
513.202,-645.675,100092
513.139,-648.043,99677
513.077,-650.412,99716
513.015,-652.782,99887
512.952,-655.152,99918
512.89,-657.523,99307
512.827,-659.894,99172
512.765,-662.266,99189
512.703,-664.638,99022
512.64,-667.011,98977
512.578,-669.385,98953
512.516,-671.759,98400
512.453,-674.134,98165
512.391,-676.509,98102
512.328,-678.885,98174
512.266,-681.261,97955
512.204,-683.638,98043
512.141,-686.016,97556
512.079,-688.394,97495
512.017,-690.773,96994
511.954,-693.152,97061
511.892,-695.532,96748
511.83,-697.913,96704
511.767,-700.294,96258
511.705,-702.676,96340
511.642,-705.058,96452
511.58,-707.441,95794
511.518,-709.824,96133
511.455,-712.208,95732
511.393,-714.593,95411
511.331,-716.978,95450
511.268,-719.364,95187
511.206,-721.75,95096
511.143,-724.137,95190
511.081,-726.525,94940
511.019,-728.913,94557
510.956,-731.301,94637
510.894,-733.691,95000
510.832,-736.08,94375
510.769,-738.471,94417
510.707,-740.862,94210
510.644,-743.253,93899
510.582,-745.646,93967
510.52,-748.038,93557
510.457,-750.432,93402
510.395,-752.826,93259
510.333,-755.22,92734
510.27,-757.615,92714
510.208,-760.011,92688
510.146,-762.407,92718
510.083,-764.804,92285
510.021,-767.201,91935
509.958,-769.599,91883
509.896,-771.998,91148
509.834,-774.397,91560
509.771,-776.797,91498
509.709,-779.197,91483
509.647,-781.598,91013
509.584,-784,90670
509.522,-786.402,90755
509.459,-788.805,90845
509.397,-791.208,90657
509.335,-793.612,90187
509.272,-796.016,90256
509.21,-798.421,90215
509.148,-800.827,90115
509.085,-803.233,90153
509.023,-805.64,89695
508.96,-808.048,89543
508.898,-810.456,89226
508.836,-812.864,88931
508.773,-815.274,89316
508.711,-817.683,89076
525.364,-194.586,72712
525.301,-196.846,72861
525.239,-199.106,72975
525.177,-201.367,72941
525.114,-203.629,73031
525.052,-205.891,73211
524.99,-208.154,73054
524.927,-210.417,73147
524.865,-212.681,73292
524.802,-214.945,73528
524.74,-217.21,73413
524.678,-219.475,73486
524.615,-221.741,73402
524.553,-224.008,73691
524.491,-226.275,73589
524.428,-228.542,73663
524.366,-230.81,73671
524.304,-233.079,73930
524.241,-235.348,73813
524.179,-237.618,73922
524.116,-239.888,74124
524.054,-242.159,74061
523.992,-244.43,73891
523.929,-246.702,74340
523.867,-248.974,74573
523.805,-251.247,74712
523.742,-253.52,75050
523.68,-255.794,75377
523.617,-258.069,75970
523.555,-260.344,76928
523.493,-262.62,78771
523.43,-264.896,80778
523.368,-267.173,83741
523.306,-269.45,87988
523.243,-271.728,93022
523.181,-274.006,98214
523.119,-276.285,104236
523.056,-278.564,108382
522.994,-280.844,113456
522.931,-283.125,117250
522.869,-285.406,119779
522.807,-287.688,121763
522.744,-289.97,123213
522.682,-292.252,124630
522.62,-294.536,124426
522.557,-296.82,124905
522.495,-299.104,125671
522.432,-301.389,125819
522.37,-303.674,124960
522.308,-305.96,124787
522.245,-308.247,124702
522.183,-310.534,124791
522.121,-312.821,124214
522.058,-315.11,124487
521.996,-317.398,124594
521.933,-319.687,123816
521.871,-321.977,123135
521.809,-324.268,123606
521.746,-326.559,123263
521.684,-328.85,123037
521.622,-331.142,123093
521.559,-333.434,122806
521.497,-335.728,123078
521.435,-338.021,122520
521.372,-340.315,122695
521.31,-342.61,121661
521.247,-344.905,122063
521.185,-347.201,121692
521.123,-349.498,121551
521.06,-351.795,120943
520.998,-354.092,120686
520.936,-356.39,120850
520.873,-358.689,120793
520.811,-360.988,119973
520.748,-363.287,119633
520.686,-365.588,119381
520.624,-367.889,119404
520.561,-370.19,118498
520.499,-372.492,118736
520.437,-374.794,117929
520.374,-377.097,117935
520.312,-379.401,118039
520.249,-381.705,117712
520.187,-384.009,117131
520.125,-386.315,117206
520.062,-388.62,117405
520.0,-390.927,117654
519.938,-393.234,117086
519.875,-395.541,116273
519.813,-397.849,116460
519.751,-400.158,116899
519.688,-402.467,116548
519.626,-404.776,116241
519.563,-407.086,115973
519.501,-409.397,115363
519.439,-411.708,115681
519.376,-414.02,115123
519.314,-416.333,114876
519.252,-418.646,114440
519.189,-420.959,114150
519.127,-423.273,113755
519.064,-425.588,113732
519.002,-427.903,113191
518.94,-430.219,112820
518.877,-432.535,112900
518.815,-434.852,112450
518.753,-437.169,111983
518.69,-439.487,111256
518.628,-441.806,111809
518.565,-444.125,111263
518.503,-446.445,111127
518.441,-448.765,111222
518.378,-451.086,111226
518.316,-453.407,111057
518.254,-455.729,110784
518.191,-458.051,110382
518.129,-460.374,110546
518.067,-462.698,110403
518.004,-465.022,109741
517.942,-467.347,110043
517.879,-469.672,109770
517.817,-471.998,109159
517.755,-474.324,109809
517.692,-476.651,109699
517.63,-478.978,109609
517.568,-481.306,109751
517.505,-483.635,110321
517.443,-485.964,110178
517.38,-488.294,110755
517.318,-490.624,112003
517.256,-492.955,113809
517.193,-495.286,114517
517.131,-497.618,116523
517.069,-499.951,117503
517.006,-502.284,116309
516.944,-504.618,114247
516.881,-506.952,112465
516.819,-509.287,110613
516.757,-511.622,109269
516.694,-513.958,108516
516.632,-516.294,108038
516.57,-518.631,107644
516.507,-520.969,107569
516.445,-523.307,107345
516.383,-525.646,106843
516.32,-527.985,106634
516.258,-530.325,106820
516.195,-532.665,106377
516.133,-535.006,106318
516.071,-537.348,106170
516.008,-539.69,106194
515.946,-542.033,106392
515.884,-544.376,106101
515.821,-546.72,105735
515.759,-549.064,105742
515.696,-551.409,105739
515.634,-553.755,105831
515.572,-556.101,105253
515.509,-558.448,104964
515.447,-560.795,104696
515.385,-563.143,104921
515.322,-565.491,104738
515.26,-567.84,104765
515.198,-570.189,104817
515.135,-572.539,104388
515.073,-574.89,104103
515.01,-577.241,104685
514.948,-579.593,104402
514.886,-581.945,104291
514.823,-584.298,103946
514.761,-586.652,104237
514.699,-589.006,104516
514.636,-591.361,104199
514.574,-593.716,103907
514.511,-596.072,103347
514.449,-598.428,103539
514.387,-600.785,103443
514.324,-603.142,103187
514.262,-605.5,103085
514.2,-607.859,103362
514.137,-610.218,102720
514.075,-612.578,102991
514.012,-614.938,103031
513.95,-617.299,102257
513.888,-619.661,102361
513.825,-622.023,102334
513.763,-624.385,101774
513.701,-626.749,102244
513.638,-629.112,101624
513.576,-631.477,101457
513.514,-633.842,101202
513.451,-636.207,101215
513.389,-638.573,100943
513.326,-640.94,101378
513.264,-643.307,101107
513.202,-645.675,100495
513.139,-648.043,100423
513.077,-650.412,100474
513.015,-652.782,100384
512.952,-655.152,99968
512.89,-657.523,100132
512.827,-659.894,99867
512.765,-662.266,99908
512.703,-664.638,99655
512.64,-667.011,99475
512.578,-669.385,98975
512.516,-671.759,99513
512.453,-674.134,98963
512.391,-676.509,98598
512.328,-678.885,98640
512.266,-681.261,98156
512.204,-683.638,98519
512.141,-686.016,98009
512.079,-688.394,97729
512.017,-690.773,97541
511.954,-693.152,97453
511.892,-695.532,96873
511.83,-697.913,97238
511.767,-700.294,97134
511.705,-702.676,96811
511.642,-705.058,96596
511.58,-707.441,96567
511.518,-709.824,97250
511.455,-712.208,95914
511.393,-714.593,96036
511.331,-716.978,96062
511.268,-719.364,95634
511.206,-721.75,95694
511.143,-724.137,95424
511.081,-726.525,95403
511.019,-728.913,95420
510.956,-731.301,95091
510.894,-733.691,94786
510.832,-736.08,94872
510.769,-738.471,94572
510.707,-740.862,94314
510.644,-743.253,94470
510.582,-745.646,94267
510.52,-748.038,94195
510.457,-750.432,93718
510.395,-752.826,93574
510.333,-755.22,93199
510.27,-757.615,92950
510.208,-760.011,93577
510.146,-762.407,92696
510.083,-764.804,92805
510.021,-767.201,92487
509.958,-769.599,92834
509.896,-771.998,92258
509.834,-774.397,91873
509.771,-776.797,91882
509.709,-779.197,91604
509.647,-781.598,91715
509.584,-784,91237
509.522,-786.402,91658
509.459,-788.805,91586
509.397,-791.208,91474
509.335,-793.612,91225
509.272,-796.016,90932
509.21,-798.421,90499
509.148,-800.827,90478
509.085,-803.233,90299
509.023,-805.64,90172
508.96,-808.048,90191
508.898,-810.456,89882
508.836,-812.864,89697
508.773,-815.274,89749
508.711,-817.683,89653
525.364,-194.586,72613
525.301,-196.846,72886
525.239,-199.106,73037
525.177,-201.367,73186
525.114,-203.629,73076
525.052,-205.891,73183
524.99,-208.154,73138
524.927,-210.417,73300
524.865,-212.681,73130
524.802,-214.945,73559
524.74,-217.21,73484
524.678,-219.475,73519
524.615,-221.741,73643
524.553,-224.008,73933
524.491,-226.275,73966
524.428,-228.542,73537
524.366,-230.81,73738
524.304,-233.079,73889
524.241,-235.348,73703
524.179,-237.618,73940
524.116,-239.888,74065
524.054,-242.159,73866
523.992,-244.43,74188
523.929,-246.702,74567
523.867,-248.974,74507
523.805,-251.247,74512
523.742,-253.52,75219
523.68,-255.794,75567
523.617,-258.069,76103
523.555,-260.344,76970
523.493,-262.62,78671
523.43,-264.896,81062
523.368,-267.173,83953
523.306,-269.45,87754
523.243,-271.728,92611
523.181,-274.006,98928
523.119,-276.285,104608
523.056,-278.564,109453
522.994,-280.844,114543
522.931,-283.125,117717
522.869,-285.406,120622
522.807,-287.688,123344
522.744,-289.97,123758
522.682,-292.252,125879
522.62,-294.536,126044
522.557,-296.82,125756
522.495,-299.104,125989
522.432,-301.389,126220
522.37,-303.674,125812
522.308,-305.96,126642
522.245,-308.247,126165
522.183,-310.534,126032
522.121,-312.821,125446
522.058,-315.11,125898
521.996,-317.398,125053
521.933,-319.687,125380
521.871,-321.977,124600
521.809,-324.268,124294
521.746,-326.559,124404
521.684,-328.85,124280
521.622,-331.142,123636
521.559,-333.434,123457
521.497,-335.728,123617
521.435,-338.021,123018
521.372,-340.315,123069
521.31,-342.61,122352
521.247,-344.905,122958
521.185,-347.201,122561
521.123,-349.498,123063
521.06,-351.795,122328
520.998,-354.092,122020
520.936,-356.39,121806
520.873,-358.689,120889
520.811,-360.988,121324
520.748,-363.287,120364
520.686,-365.588,119954
520.624,-367.889,120067
520.561,-370.19,119555
520.499,-372.492,119461
520.437,-374.794,119179
520.374,-377.097,119363
520.312,-379.401,118893
520.249,-381.705,118811
520.187,-384.009,118722
520.125,-386.315,117997
520.062,-388.62,118207
520.0,-390.927,118233
519.938,-393.234,117910
519.875,-395.541,118081
519.813,-397.849,118251
519.751,-400.158,117476
519.688,-402.467,117011
519.626,-404.776,117423
519.563,-407.086,116532
519.501,-409.397,116730
519.439,-411.708,116256
519.376,-414.02,116020
519.314,-416.333,116263
519.252,-418.646,115476
519.189,-420.959,115114
519.127,-423.273,115056
519.064,-425.588,114614
519.002,-427.903,114079
518.94,-430.219,114164
518.877,-432.535,113193
518.815,-434.852,112523
518.753,-437.169,113024
518.69,-439.487,112151
518.628,-441.806,112000
518.565,-444.125,112179
518.503,-446.445,111418
518.441,-448.765,112122
518.378,-451.086,111654
518.316,-453.407,111489
518.254,-455.729,110912
518.191,-458.051,111295
518.129,-460.374,111097
518.067,-462.698,110721
518.004,-465.022,110812
517.942,-467.347,111372
517.879,-469.672,110553
517.817,-471.998,111035
517.755,-474.324,110398
517.692,-476.651,110829
517.63,-478.978,110618
517.568,-481.306,111044
517.505,-483.635,110986
517.443,-485.964,111232
517.38,-488.294,111927
517.318,-490.624,112765
517.256,-492.955,113761
517.193,-495.286,115690
517.131,-497.618,117453
517.069,-499.951,118253
517.006,-502.284,117014
516.944,-504.618,115220
516.881,-506.952,113018
516.819,-509.287,111112
516.757,-511.622,110000
516.694,-513.958,109418
516.632,-516.294,109026
516.57,-518.631,108186
516.507,-520.969,107657
516.445,-523.307,107683
516.383,-525.646,108110
516.32,-527.985,107587
516.258,-530.325,107386
516.195,-532.665,107911
516.133,-535.006,107075
516.071,-537.348,107310
516.008,-539.69,106961
515.946,-542.033,107026
515.884,-544.376,106547
515.821,-546.72,106448
515.759,-549.064,106898
515.696,-551.409,106044
515.634,-553.755,106213
515.572,-556.101,106518
515.509,-558.448,105914
515.447,-560.795,105943
515.385,-563.143,105765
515.322,-565.491,105454
515.26,-567.84,105619
515.198,-570.189,105238
515.135,-572.539,105798
515.073,-574.89,105666
515.01,-577.241,105544
514.948,-579.593,105212
514.886,-581.945,104832
514.823,-584.298,104724
514.761,-586.652,104553
514.699,-589.006,105091
514.636,-591.361,104865
514.574,-593.716,104725
514.511,-596.072,104322
514.449,-598.428,104424
514.387,-600.785,104449
514.324,-603.142,104288
514.262,-605.5,104044
514.2,-607.859,104257
514.137,-610.218,104119
514.075,-612.578,103446
514.012,-614.938,103605
513.95,-617.299,103203
513.888,-619.661,102932
513.825,-622.023,102626
513.763,-624.385,102607
513.701,-626.749,102842
513.638,-629.112,102263
513.576,-631.477,102360
513.514,-633.842,102423
513.451,-636.207,101669
513.389,-638.573,102175
513.326,-640.94,101661
513.264,-643.307,101393
513.202,-645.675,101015
513.139,-648.043,101639
513.077,-650.412,101077
513.015,-652.782,100904
512.952,-655.152,100752
512.89,-657.523,100893
512.827,-659.894,100499
512.765,-662.266,100456
512.703,-664.638,100107
512.64,-667.011,100061
512.578,-669.385,99876
512.516,-671.759,100004
512.453,-674.134,99969
512.391,-676.509,98932
512.328,-678.885,99200
512.266,-681.261,99132
512.204,-683.638,98592
512.141,-686.016,98648
512.079,-688.394,98276
512.017,-690.773,98063
511.954,-693.152,98044
511.892,-695.532,97957
511.83,-697.913,97850
511.767,-700.294,97584
511.705,-702.676,97621
511.642,-705.058,97286
511.58,-707.441,97136
511.518,-709.824,97454
511.455,-712.208,96921
511.393,-714.593,96417
511.331,-716.978,96048
511.268,-719.364,96676
511.206,-721.75,96105
511.143,-724.137,96098
511.081,-726.525,95757
511.019,-728.913,96126
510.956,-731.301,95743
510.894,-733.691,95349
510.832,-736.08,95277
510.769,-738.471,95159
510.707,-740.862,95063
510.644,-743.253,95075
510.582,-745.646,95012
510.52,-748.038,94482
510.457,-750.432,94675
510.395,-752.826,94192
510.333,-755.22,94167
510.27,-757.615,94000
510.208,-760.011,93684
510.146,-762.407,93999
510.083,-764.804,93714
510.021,-767.201,93082
509.958,-769.599,92608
509.896,-771.998,92851
509.834,-774.397,92603
509.771,-776.797,92361
509.709,-779.197,92274
509.647,-781.598,92329
509.584,-784,91875
509.522,-786.402,91721
509.459,-788.805,91738
509.397,-791.208,91709
509.335,-793.612,91454
509.272,-796.016,91188
509.21,-798.421,90647
509.148,-800.827,90978
509.085,-803.233,90724
509.023,-805.64,90764
508.96,-808.048,90618
508.898,-810.456,90690
508.836,-812.864,90164
508.773,-815.274,90138
508.711,-817.683,89913
508.661,-819.612,89889