File: tomke/20240809_Si_on_TiO2/20240809/raw_data/Si_onTiO2_80mA_30mW_30sec_5acc_545nm_bg.txt
Wavelength(nm), Raman shift(cm^-1), Intensity(counts)
553.364,768.549,158993
553.301,766.512,159208
553.239,764.475,159783
553.177,762.437,160033
553.114,760.398,158946
553.052,758.359,159003
552.99,756.32,159300
552.927,754.28,158759
552.865,752.24,159307
552.802,750.199,158720
552.74,748.158,157957
552.678,746.116,158138
552.615,744.074,158522
552.553,742.032,157894
552.491,739.989,158001
552.428,737.945,157638
552.366,735.901,156879
552.304,733.857,156802
552.241,731.812,157270
552.179,729.766,157655
552.116,727.721,156809
552.054,725.674,156638
551.992,723.628,156882
551.929,721.58,157573
551.867,719.533,156986
551.805,717.485,157202
551.742,715.436,157252
551.68,713.387,157066
551.617,711.337,157312
551.555,709.287,156896
551.493,707.237,156452
551.43,705.186,156875
551.368,703.135,156999
551.306,701.083,157455
551.243,699.031,157009
551.181,696.978,156445
551.119,694.925,156527
551.056,692.871,156883
550.994,690.817,155908
550.931,688.762,156435
550.869,686.707,156061
550.807,684.651,155823
550.744,682.595,156010
550.682,680.539,156163
550.62,678.482,155912
550.557,676.425,155688
550.495,674.367,155208
550.432,672.308,154327
550.37,670.25,155123
550.308,668.19,154777
550.245,666.131,154711
550.183,664.07,153922
550.121,662.01,152834
550.058,659.948,154181
549.996,657.887,154319
549.933,655.825,152673
549.871,653.762,153344
549.809,651.699,153274
549.746,649.636,153546
549.684,647.572,153160
549.622,645.507,153544
549.559,643.442,154097
549.497,641.377,153471
549.435,639.311,153468
549.372,637.245,153337
549.31,635.178,152985
549.247,633.111,153390
549.185,631.043,153601
549.123,628.975,152987
549.06,626.906,153221
548.998,624.837,153790
548.936,622.768,152953
548.873,620.698,153063
548.811,618.627,153041
548.748,616.556,152565
548.686,614.485,151772
548.624,612.413,152430
548.561,610.34,152177
548.499,608.267,151516
548.437,606.194,152204
548.374,604.12,150859
548.312,602.046,151020
548.249,599.971,149857
548.187,597.896,149369
548.125,595.82,149193
548.062,593.744,149198
548.0,591.667,149045
547.938,589.59,148725
547.875,587.513,147661
547.813,585.434,148258
547.751,583.356,148315
547.688,581.277,146634
547.626,579.197,146943
547.563,577.117,146236
547.501,575.037,146855
547.439,572.956,145829
547.376,570.875,145806
547.314,568.793,146170
547.252,566.71,145465
547.189,564.628,146303
547.127,562.544,145422
547.064,560.461,145636
547.002,558.376,145346
546.94,556.292,145540
546.877,554.206,144872
546.815,552.121,144934
546.753,550.035,144741
546.69,547.948,144760
546.628,545.861,145384
546.565,543.773,145287
546.503,541.685,145050
546.441,539.597,143972
546.378,537.508,144120
546.316,535.418,143692
546.254,533.328,143763
546.191,531.238,143384
546.129,529.147,143131
546.067,527.056,141838
546.004,524.964,141613
545.942,522.871,141282
545.879,520.778,141322
545.817,518.685,140846
545.755,516.591,140285
545.692,514.497,140391
545.63,512.402,140251
545.568,510.307,139653
545.505,508.211,139540
545.443,506.115,138537
545.38,504.019,138877
545.318,501.922,139604
545.256,499.824,139604
545.193,497.726,139366
545.131,495.627,138727
545.069,493.528,139799
545.006,491.429,139576
544.944,489.329,139723
544.881,487.228,139430
544.819,485.127,139528
544.757,483.026,139091
544.694,480.924,139876
544.632,478.821,139449
544.57,476.718,139884
544.507,474.615,139367
544.445,472.511,139650
544.383,470.407,139657
544.32,468.302,139127
544.258,466.197,139183
544.195,464.091,138631
544.133,461.985,138737
544.071,459.878,138039
544.008,457.771,138618
543.946,455.663,137667
543.884,453.555,137494
543.821,451.446,137335
543.759,449.337,137270
543.696,447.227,136522
543.634,445.117,136365
543.572,443.006,136586
543.509,440.895,135787
543.447,438.784,135666
543.385,436.671,135417
543.322,434.559,135620
543.26,432.446,135272
543.198,430.332,135081
543.135,428.218,134938
543.073,426.104,135358
543.01,423.989,135349
542.948,421.873,135211
542.886,419.757,135582
542.823,417.641,135371
542.761,415.524,135764
542.699,413.407,135709
542.636,411.289,135045
542.574,409.17,135311
542.511,407.051,134977
542.449,404.932,134978
542.387,402.812,135515
542.324,400.692,136148
542.262,398.571,134230
542.2,396.45,134494
542.137,394.328,134038
542.075,392.205,134474
542.012,390.083,134221
541.95,387.959,134021
541.888,385.836,133602
541.825,383.711,133716
541.763,381.587,133114
541.701,379.461,132955
541.638,377.336,132914
541.576,375.209,131934
541.514,373.083,131818
541.451,370.955,132221
541.389,368.828,131664
541.326,366.7,131797
541.264,364.571,131471
541.202,362.442,131534
541.139,360.312,131550
541.077,358.182,131576
541.015,356.051,132308
540.952,353.92,131613
540.89,351.789,131336
540.827,349.657,131005
540.765,347.524,130386
540.703,345.391,130669
540.64,343.257,129737
540.578,341.123,130006
540.516,338.989,128751
540.453,336.854,127993
540.391,334.718,127960
540.328,332.582,126690
540.266,330.445,126469
540.204,328.308,126298
540.141,326.171,125117
540.079,324.033,124727
540.017,321.894,124951
539.954,319.755,125222
539.892,317.616,125077
539.83,315.476,125360
539.767,313.335,125216
539.705,311.194,125890
539.642,309.053,126157
539.58,306.911,126458
539.518,304.768,126180
539.455,302.625,125359
539.393,300.482,124608
539.331,298.338,124007
539.268,296.194,122915
539.206,294.049,122260
539.143,291.903,120462
539.081,289.757,118780
539.019,287.611,117423
538.956,285.464,116792
538.894,283.316,116359
538.832,281.169,115819
538.769,279.02,115821
538.707,276.871,116085
538.644,274.722,116423
538.582,272.572,114315
538.52,270.421,110365
538.457,268.271,104295
538.395,266.119,97306
538.333,263.967,89661
538.27,261.815,82811
538.208,259.662,77059
538.146,257.508,72534
538.083,255.355,68870
538.021,253.2,66777
537.958,251.045,65500
537.896,248.89,64338
537.834,246.734,63826
537.771,244.578,63332
537.709,242.421,63068
537.647,240.263,62727
537.584,238.105,62664
537.522,235.947,62496
537.459,233.788,62378
537.397,231.629,62391
537.335,229.469,62299
537.272,227.308,62253
537.21,225.147,62266
537.148,222.986,62244
537.085,220.824,62200
537.023,218.662,62155
536.96,216.499,62202
536.898,214.335,62092
536.836,212.171,62185
536.773,210.007,62178
536.711,207.842,62064
553.364,768.549,156819
553.301,766.512,158255
553.239,764.475,157874
553.177,762.437,158309
553.114,760.398,158047
553.052,758.359,158269
552.99,756.32,158001
552.927,754.28,157188
552.865,752.24,156881
552.802,750.199,157056
552.74,748.158,156831
552.678,746.116,156223
552.615,744.074,156397
552.553,742.032,156641
552.491,739.989,157475
552.428,737.945,155885
552.366,735.901,155849
552.304,733.857,155677
552.241,731.812,156178
552.179,729.766,156379
552.116,727.721,155771
552.054,725.674,156036
551.992,723.628,155110
551.929,721.58,155633
551.867,719.533,155586
551.805,717.485,155579
551.742,715.436,154877
551.68,713.387,155495
551.617,711.337,155813
551.555,709.287,155227
551.493,707.237,156059
551.43,705.186,155478
551.368,703.135,155431
551.306,701.083,155768
551.243,699.031,155613
551.181,696.978,155796
551.119,694.925,155127
551.056,692.871,154919
550.994,690.817,155271
550.931,688.762,155029
550.869,686.707,155506
550.807,684.651,153986
550.744,682.595,154969
550.682,680.539,154581
550.62,678.482,154789
550.557,676.425,153458
550.495,674.367,153367
550.432,672.308,153961
550.37,670.25,153605
550.308,668.19,153405
550.245,666.131,153111
550.183,664.07,152381
550.121,662.01,151771
550.058,659.948,152993
549.996,657.887,152306
549.933,655.825,151814
549.871,653.762,151931
549.809,651.699,152053
549.746,649.636,152484
549.684,647.572,151892
549.622,645.507,152457
549.559,643.442,151370
549.497,641.377,151856
549.435,639.311,151385
549.372,637.245,151817
549.31,635.178,151482
549.247,633.111,151809
549.185,631.043,151626
549.123,628.975,152558
549.06,626.906,151848
548.998,624.837,151841
548.936,622.768,151726
548.873,620.698,152694
548.811,618.627,152236
548.748,616.556,151315
548.686,614.485,150755
548.624,612.413,150536
548.561,610.34,150793
548.499,608.267,150492
548.437,606.194,150435
548.374,604.12,149474
548.312,602.046,149958
548.249,599.971,148803
548.187,597.896,148681
548.125,595.82,147577
548.062,593.744,147759
548.0,591.667,147292
547.938,589.59,147189
547.875,587.513,147284
547.813,585.434,146638
547.751,583.356,145133
547.688,581.277,146046
547.626,579.197,146149
547.563,577.117,145849
547.501,575.037,145253
547.439,572.956,145605
547.376,570.875,144585
547.314,568.793,144686
547.252,566.71,144784
547.189,564.628,144258
547.127,562.544,144976
547.064,560.461,144724
547.002,558.376,143542
546.94,556.292,143999
546.877,554.206,143553
546.815,552.121,144172
546.753,550.035,143727
546.69,547.948,144095
546.628,545.861,143853
546.565,543.773,143616
546.503,541.685,143572
546.441,539.597,143299
546.378,537.508,142778
546.316,535.418,142377
546.254,533.328,141859
546.191,531.238,141449
546.129,529.147,141573
546.067,527.056,141181
546.004,524.964,140793
545.942,522.871,140721
545.879,520.778,140330
545.817,518.685,140417
545.755,516.591,140149
545.692,514.497,139100
545.63,512.402,139072
545.568,510.307,138490
545.505,508.211,138842
545.443,506.115,138649
545.38,504.019,138047
545.318,501.922,138071
545.256,499.824,138608
545.193,497.726,137660
545.131,495.627,137674
545.069,493.528,138699
545.006,491.429,138544
544.944,489.329,138633
544.881,487.228,137951
544.819,485.127,138626
544.757,483.026,137941
544.694,480.924,138607
544.632,478.821,138514
544.57,476.718,138590
544.507,474.615,138814
544.445,472.511,138300
544.383,470.407,138220
544.32,468.302,137996
544.258,466.197,138026
544.195,464.091,137881
544.133,461.985,137461
544.071,459.878,138033
544.008,457.771,136652
543.946,455.663,136804
543.884,453.555,136643
543.821,451.446,136323
543.759,449.337,135771
543.696,447.227,136294
543.634,445.117,135104
543.572,443.006,135206
543.509,440.895,135074
543.447,438.784,134771
543.385,436.671,134528
543.322,434.559,134270
543.26,432.446,134000
543.198,430.332,134602
543.135,428.218,134138
543.073,426.104,134084
543.01,423.989,134614
542.948,421.873,134133
542.886,419.757,134653
542.823,417.641,134141
542.761,415.524,135122
542.699,413.407,134269
542.636,411.289,134431
542.574,409.17,134233
542.511,407.051,134078
542.449,404.932,134407
542.387,402.812,134342
542.324,400.692,133822
542.262,398.571,133816
542.2,396.45,133316
542.137,394.328,133365
542.075,392.205,133465
542.012,390.083,133033
541.95,387.959,132341
541.888,385.836,132661
541.825,383.711,131627
541.763,381.587,131609
541.701,379.461,132228
541.638,377.336,131298
541.576,375.209,131408
541.514,373.083,131158
541.451,370.955,130489
541.389,368.828,130982
541.326,366.7,131045
541.264,364.571,131177
541.202,362.442,130888
541.139,360.312,130705
541.077,358.182,130457
541.015,356.051,130296
540.952,353.92,130120
540.89,351.789,130224
540.827,349.657,129760
540.765,347.524,129544
540.703,345.391,129308
540.64,343.257,129300
540.578,341.123,127742
540.516,338.989,127516
540.453,336.854,127595
540.391,334.718,126592
540.328,332.582,126047
540.266,330.445,126021
540.204,328.308,125039
540.141,326.171,124358
540.079,324.033,124305
540.017,321.894,124125
539.954,319.755,124117
539.892,317.616,123953
539.83,315.476,124717
539.767,313.335,125047
539.705,311.194,124816
539.642,309.053,124997
539.58,306.911,124896
539.518,304.768,125851
539.455,302.625,125079
539.393,300.482,123935
539.331,298.338,123365
539.268,296.194,121591
539.206,294.049,120437
539.143,291.903,118611
539.081,289.757,117819
539.019,287.611,117031
538.956,285.464,115600
538.894,283.316,115015
538.832,281.169,115060
538.769,279.02,115554
538.707,276.871,115157
538.644,274.722,115025
538.582,272.572,113271
538.52,270.421,109972
538.457,268.271,103829
538.395,266.119,96471
538.333,263.967,89400
538.27,261.815,82588
538.208,259.662,76839
538.146,257.508,72326
538.083,255.355,68985
538.021,253.2,66824
537.958,251.045,65170
537.896,248.89,64269
537.834,246.734,63589
537.771,244.578,63270
537.709,242.421,63000
537.647,240.263,62860
537.584,238.105,62586
537.522,235.947,62539
537.459,233.788,62357
537.397,231.629,62227
537.335,229.469,62270
537.272,227.308,62136
537.21,225.147,62122
537.148,222.986,62121
537.085,220.824,62158
537.023,218.662,62093
536.96,216.499,62123
536.898,214.335,62222
536.836,212.171,62008
536.773,210.007,62131
536.711,207.842,62034
553.364,768.549,158378
553.301,766.512,159759
553.239,764.475,159494
553.177,762.437,158805
553.114,760.398,158728
553.052,758.359,158753
552.99,756.32,158649
552.927,754.28,158027
552.865,752.24,158199
552.802,750.199,157958
552.74,748.158,157452
552.678,746.116,157457
552.615,744.074,157762
552.553,742.032,157926
552.491,739.989,158122
552.428,737.945,158083
552.366,735.901,156752
552.304,733.857,156724
552.241,731.812,156650
552.179,729.766,156983
552.116,727.721,156083
552.054,725.674,156768
551.992,723.628,155856
551.929,721.58,156960
551.867,719.533,156157
551.805,717.485,156136
551.742,715.436,156370
551.68,713.387,156694
551.617,711.337,157101
551.555,709.287,156492
551.493,707.237,156229
551.43,705.186,156593
551.368,703.135,156524
551.306,701.083,156032
551.243,699.031,156240
551.181,696.978,155926
551.119,694.925,156709
551.056,692.871,155893
550.994,690.817,156276
550.931,688.762,155979
550.869,686.707,155562
550.807,684.651,155262
550.744,682.595,155012
550.682,680.539,155535
550.62,678.482,155300
550.557,676.425,155192
550.495,674.367,154678
550.432,672.308,154858
550.37,670.25,154483
550.308,668.19,153482
550.245,666.131,154436
550.183,664.07,153000
550.121,662.01,153408
550.058,659.948,153187
549.996,657.887,152802
549.933,655.825,152841
549.871,653.762,152502
549.809,651.699,152981
549.746,649.636,152919
549.684,647.572,152647
549.622,645.507,152279
549.559,643.442,152427
549.497,641.377,152515
549.435,639.311,152494
549.372,637.245,152831
549.31,635.178,152199
549.247,633.111,153059
549.185,631.043,152398
549.123,628.975,152245
549.06,626.906,153055
548.998,624.837,152923
548.936,622.768,152816
548.873,620.698,151905
548.811,618.627,152580
548.748,616.556,151848
548.686,614.485,151867
548.624,612.413,151249
548.561,610.34,151392
548.499,608.267,150920
548.437,606.194,150124
548.374,604.12,149842
548.312,602.046,150312
548.249,599.971,150438
548.187,597.896,149249
548.125,595.82,149072
548.062,593.744,148341
548.0,591.667,148567
547.938,589.59,148070
547.875,587.513,147350
547.813,585.434,147242
547.751,583.356,147309
547.688,581.277,147099
547.626,579.197,146189
547.563,577.117,146129
547.501,575.037,146422
547.439,572.956,146088
547.376,570.875,145316
547.314,568.793,145350
547.252,566.71,145698
547.189,564.628,145471
547.127,562.544,144904
547.064,560.461,145304
547.002,558.376,145165
546.94,556.292,145032
546.877,554.206,145199
546.815,552.121,144860
546.753,550.035,144562
546.69,547.948,143826
546.628,545.861,144217
546.565,543.773,143877
546.503,541.685,144051
546.441,539.597,143758
546.378,537.508,143057
546.316,535.418,143303
546.254,533.328,142986
546.191,531.238,142931
546.129,529.147,142533
546.067,527.056,142218
546.004,524.964,140804
545.942,522.871,141614
545.879,520.778,141030
545.817,518.685,140021
545.755,516.591,140126
545.692,514.497,139949
545.63,512.402,139832
545.568,510.307,139181
545.505,508.211,138903
545.443,506.115,139471
545.38,504.019,138583
545.318,501.922,138581
545.256,499.824,139168
545.193,497.726,139166
545.131,495.627,138917
545.069,493.528,139297
545.006,491.429,138923
544.944,489.329,139117
544.881,487.228,138786
544.819,485.127,138851
544.757,483.026,139096
544.694,480.924,139312
544.632,478.821,139369
544.57,476.718,138997
544.507,474.615,138620
544.445,472.511,139345
544.383,470.407,139653
544.32,468.302,138495
544.258,466.197,138759
544.195,464.091,138242
544.133,461.985,137703
544.071,459.878,138308
544.008,457.771,137515
543.946,455.663,137543
543.884,453.555,136925
543.821,451.446,137284
543.759,449.337,136970
543.696,447.227,136040
543.634,445.117,135797
543.572,443.006,135460
543.509,440.895,135698
543.447,438.784,135528
543.385,436.671,135134
543.322,434.559,134681
543.26,432.446,135320
543.198,430.332,135288
543.135,428.218,134628
543.073,426.104,134665
543.01,423.989,134596
542.948,421.873,134752
542.886,419.757,135237
542.823,417.641,135016
542.761,415.524,135392
542.699,413.407,135373
542.636,411.289,135032
542.574,409.17,135427
542.511,407.051,134716
542.449,404.932,134929
542.387,402.812,134689
542.324,400.692,134609
542.262,398.571,134446
542.2,396.45,134687
542.137,394.328,133999
542.075,392.205,134283
542.012,390.083,133925
541.95,387.959,133730
541.888,385.836,133318
541.825,383.711,132751
541.763,381.587,132331
541.701,379.461,132444
541.638,377.336,132449
541.576,375.209,131583
541.514,373.083,131388
541.451,370.955,131772
541.389,368.828,131752
541.326,366.7,130991
541.264,364.571,131272
541.202,362.442,131500
541.139,360.312,131601
541.077,358.182,130924
541.015,356.051,131276
540.952,353.92,130678
540.89,351.789,130877
540.827,349.657,130553
540.765,347.524,130639
540.703,345.391,129975
540.64,343.257,129276
540.578,341.123,128610
540.516,338.989,128452
540.453,336.854,127631
540.391,334.718,126367
540.328,332.582,126806
540.266,330.445,127870
540.204,328.308,125711
540.141,326.171,124923
540.079,324.033,124753
540.017,321.894,124612
539.954,319.755,124907
539.892,317.616,124629
539.83,315.476,124847
539.767,313.335,124905
539.705,311.194,125024
539.642,309.053,125889
539.58,306.911,125025
539.518,304.768,125904
539.455,302.625,125538
539.393,300.482,124453
539.331,298.338,123386
539.268,296.194,122723
539.206,294.049,121158
539.143,291.903,119657
539.081,289.757,118782
539.019,287.611,117290
538.956,285.464,116422
538.894,283.316,115525
538.832,281.169,115265
538.769,279.02,115373
538.707,276.871,116096
538.644,274.722,115545
538.582,272.572,113922
538.52,270.421,110172
538.457,268.271,103844
538.395,266.119,96827
538.333,263.967,89239
538.27,261.815,82822
538.208,259.662,76925
538.146,257.508,72264
538.083,255.355,68923
538.021,253.2,66714
537.958,251.045,65429
537.896,248.89,64457
537.834,246.734,63703
537.771,244.578,63128
537.709,242.421,63034
537.647,240.263,62742
537.584,238.105,62647
537.522,235.947,62568
537.459,233.788,62433
537.397,231.629,62429
537.335,229.469,62360
537.272,227.308,62344
537.21,225.147,62174
537.148,222.986,62214
537.085,220.824,62163
537.023,218.662,62163
536.96,216.499,62146
536.898,214.335,62198
536.836,212.171,62101
536.773,210.007,62221
536.711,207.842,62157
553.364,768.549,148158
553.301,766.512,148109
553.239,764.475,148689
553.177,762.437,148894
553.114,760.398,148612
553.052,758.359,148572
552.99,756.32,148080
552.927,754.28,148117
552.865,752.24,147615
552.802,750.199,147586
552.74,748.158,147683
552.678,746.116,147285
552.615,744.074,147740
552.553,742.032,147246
552.491,739.989,147773
552.428,737.945,147312
552.366,735.901,146383
552.304,733.857,146388
552.241,731.812,146632
552.179,729.766,146881
552.116,727.721,147179
552.054,725.674,146948
551.992,723.628,146630
551.929,721.58,146770
551.867,719.533,147069
551.805,717.485,146166
551.742,715.436,146125
551.68,713.387,146343
551.617,711.337,146083
551.555,709.287,146591
551.493,707.237,145837
551.43,705.186,146125
551.368,703.135,146982
551.306,701.083,146555
551.243,699.031,146309
551.181,696.978,146285
551.119,694.925,145812
551.056,692.871,146631
550.994,690.817,145773
550.931,688.762,145995
550.869,686.707,145585
550.807,684.651,145376
550.744,682.595,145935
550.682,680.539,145341
550.62,678.482,145062
550.557,676.425,144860
550.495,674.367,144480
550.432,672.308,144233
550.37,670.25,144395
550.308,668.19,144123
550.245,666.131,143302
550.183,664.07,143876
550.121,662.01,143540
550.058,659.948,143225
549.996,657.887,143702
549.933,655.825,142985
549.871,653.762,143321
549.809,651.699,143174
549.746,649.636,143276
549.684,647.572,143530
549.622,645.507,143451
549.559,643.442,142316
549.497,641.377,142437
549.435,639.311,143016
549.372,637.245,143346
549.31,635.178,142771
549.247,633.111,143453
549.185,631.043,142999
549.123,628.975,142624
549.06,626.906,143808
548.998,624.837,142804
548.936,622.768,144061
548.873,620.698,142773
548.811,618.627,143002
548.748,616.556,142315
548.686,614.485,141833
548.624,612.413,141876
548.561,610.34,141374
548.499,608.267,141417
548.437,606.194,141722
548.374,604.12,141136
548.312,602.046,141172
548.249,599.971,140968
548.187,597.896,139693
548.125,595.82,139261
548.062,593.744,139324
548.0,591.667,139594
547.938,589.59,139328
547.875,587.513,138363
547.813,585.434,137947
547.751,583.356,137624
547.688,581.277,137101
547.626,579.197,137819
547.563,577.117,137614
547.501,575.037,136980
547.439,572.956,136974
547.376,570.875,136009
547.314,568.793,136438
547.252,566.71,136678
547.189,564.628,136284
547.127,562.544,135988
547.064,560.461,136574
547.002,558.376,135870
546.94,556.292,136699
546.877,554.206,135667
546.815,552.121,135452
546.753,550.035,135987
546.69,547.948,135165
546.628,545.861,135244
546.565,543.773,135571
546.503,541.685,135321
546.441,539.597,135032
546.378,537.508,135031
546.316,535.418,134722
546.254,533.328,133701
546.191,531.238,133897
546.129,529.147,132913
546.067,527.056,133156
546.004,524.964,132783
545.942,522.871,132661
545.879,520.778,132483
545.817,518.685,131521
545.755,516.591,131565
545.692,514.497,131568
545.63,512.402,131516
545.568,510.307,130635
545.505,508.211,130610
545.443,506.115,130693
545.38,504.019,131225
545.318,501.922,130738
545.256,499.824,130659
545.193,497.726,130395
545.131,495.627,130176
545.069,493.528,130709
545.006,491.429,130134
544.944,489.329,130677
544.881,487.228,131055
544.819,485.127,130558
544.757,483.026,130819
544.694,480.924,130696
544.632,478.821,130945
544.57,476.718,130738
544.507,474.615,130363
544.445,472.511,130752
544.383,470.407,130388
544.32,468.302,130353
544.258,466.197,130231
544.195,464.091,129905
544.133,461.985,129912
544.071,459.878,129634
544.008,457.771,129022
543.946,455.663,129180
543.884,453.555,129045
543.821,451.446,129124
543.759,449.337,128606
543.696,447.227,128175
543.634,445.117,127777
543.572,443.006,127606
543.509,440.895,127223
543.447,438.784,126966
543.385,436.671,127410
543.322,434.559,127478
543.26,432.446,127153
543.198,430.332,126997
543.135,428.218,127186
543.073,426.104,126765
543.01,423.989,127259
542.948,421.873,127160
542.886,419.757,126995
542.823,417.641,126821
542.761,415.524,126750
542.699,413.407,127071
542.636,411.289,127361
542.574,409.17,127164
542.511,407.051,126753
542.449,404.932,127156
542.387,402.812,127371
542.324,400.692,126978
542.262,398.571,126594
542.2,396.45,126785
542.137,394.328,126833
542.075,392.205,127003
542.012,390.083,126100
541.95,387.959,125538
541.888,385.836,125479
541.825,383.711,125161
541.763,381.587,124353
541.701,379.461,125204
541.638,377.336,124154
541.576,375.209,124603
541.514,373.083,124114
541.451,370.955,123425
541.389,368.828,123850
541.326,366.7,123424
541.264,364.571,123546
541.202,362.442,124108
541.139,360.312,123994
541.077,358.182,123323
541.015,356.051,123042
540.952,353.92,122786
540.89,351.789,122989
540.827,349.657,122485
540.765,347.524,123172
540.703,345.391,122264
540.64,343.257,121840
540.578,341.123,121731
540.516,338.989,121143
540.453,336.854,120951
540.391,334.718,120617
540.328,332.582,119606
540.266,330.445,119320
540.204,328.308,118423
540.141,326.171,135454
540.079,324.033,117612
540.017,321.894,117805
539.954,319.755,117468
539.892,317.616,117986
539.83,315.476,117972
539.767,313.335,117948
539.705,311.194,118366
539.642,309.053,118282
539.58,306.911,118964
539.518,304.768,118518
539.455,302.625,118203
539.393,300.482,117973
539.331,298.338,116946
539.268,296.194,116073
539.206,294.049,114869
539.143,291.903,113346
539.081,289.757,112223
539.019,287.611,110966
538.956,285.464,110725
538.894,283.316,109818
538.832,281.169,109307
538.769,279.02,109519
538.707,276.871,110083
538.644,274.722,109559
538.582,272.572,108357
538.52,270.421,104275
538.457,268.271,99162
538.395,266.119,93013
538.333,263.967,86438
538.27,261.815,80593
538.208,259.662,75399
538.146,257.508,71231
538.083,255.355,67821
538.021,253.2,66095
537.958,251.045,64985
537.896,248.89,63811
537.834,246.734,63245
537.771,244.578,62970
537.709,242.421,62728
537.647,240.263,62482
537.584,238.105,62453
537.522,235.947,62289
537.459,233.788,62214
537.397,231.629,62203
537.335,229.469,62201
537.272,227.308,62212
537.21,225.147,62118
537.148,222.986,62096
537.085,220.824,62065
537.023,218.662,61997
536.96,216.499,62033
536.898,214.335,61942
536.836,212.171,61998
536.773,210.007,61969
536.711,207.842,62069
553.364,768.549,154187
553.301,766.512,155820
553.239,764.475,154595
553.177,762.437,154755
553.114,760.398,154644
553.052,758.359,155232
552.99,756.32,154406
552.927,754.28,155026
552.865,752.24,154129
552.802,750.199,154387
552.74,748.158,153709
552.678,746.116,153713
552.615,744.074,153234
552.553,742.032,153251
552.491,739.989,153158
552.428,737.945,153001
552.366,735.901,153211
552.304,733.857,152965
552.241,731.812,152729
552.179,729.766,152822
552.116,727.721,152916
552.054,725.674,152661
551.992,723.628,152349
551.929,721.58,152060
551.867,719.533,152496
551.805,717.485,153224
551.742,715.436,152885
551.68,713.387,152593
551.617,711.337,152774
551.555,709.287,152671
551.493,707.237,152905
551.43,705.186,152657
551.368,703.135,152451
551.306,701.083,152642
551.243,699.031,152641
551.181,696.978,152686
551.119,694.925,152713
551.056,692.871,153216
550.994,690.817,150467
550.931,688.762,152685
550.869,686.707,151842
550.807,684.651,151870
550.744,682.595,151905
550.682,680.539,151329
550.62,678.482,150435
550.557,676.425,151027
550.495,674.367,151437
550.432,672.308,150218
550.37,670.25,150817
550.308,668.19,150256
550.245,666.131,150141
550.183,664.07,149716
550.121,662.01,150071
550.058,659.948,149964
549.996,657.887,149361
549.933,655.825,148806
549.871,653.762,149187
549.809,651.699,148784
549.746,649.636,149856
549.684,647.572,149110
549.622,645.507,149145
549.559,643.442,149227
549.497,641.377,148294
549.435,639.311,149141
549.372,637.245,149206
549.31,635.178,148820
549.247,633.111,149281
549.185,631.043,148510
549.123,628.975,148569
549.06,626.906,148758
548.998,624.837,149060
548.936,622.768,149613
548.873,620.698,149050
548.811,618.627,148992
548.748,616.556,148184
548.686,614.485,148203
548.624,612.413,147887
548.561,610.34,148026
548.499,608.267,147354
548.437,606.194,147299
548.374,604.12,147180
548.312,602.046,145684
548.249,599.971,145714
548.187,597.896,145903
548.125,595.82,145087
548.062,593.744,145366
548.0,591.667,145104
547.938,589.59,144713
547.875,587.513,144243
547.813,585.434,143843
547.751,583.356,143319
547.688,581.277,142865
547.626,579.197,142816
547.563,577.117,142939
547.501,575.037,142493
547.439,572.956,142489
547.376,570.875,142424
547.314,568.793,141906
547.252,566.71,141976
547.189,564.628,141749
547.127,562.544,141328
547.064,560.461,142368
547.002,558.376,141144
546.94,556.292,141121
546.877,554.206,140896
546.815,552.121,141294
546.753,550.035,141093
546.69,547.948,141247
546.628,545.861,141157
546.565,543.773,140666
546.503,541.685,140445
546.441,539.597,140952
546.378,537.508,140743
546.316,535.418,139650
546.254,533.328,139608
546.191,531.238,139143
546.129,529.147,139122
546.067,527.056,139162
546.004,524.964,138009
545.942,522.871,137554
545.879,520.778,136876
545.817,518.685,137327
545.755,516.591,136908
545.692,514.497,136904
545.63,512.402,136541
545.568,510.307,136167
545.505,508.211,135989
545.443,506.115,136301
545.38,504.019,135781
545.318,501.922,135550
545.256,499.824,136345
545.193,497.726,135831
545.131,495.627,136536
545.069,493.528,135736
545.006,491.429,136002
544.944,489.329,135616
544.881,487.228,135479
544.819,485.127,136181
544.757,483.026,135841
544.694,480.924,135946
544.632,478.821,135559
544.57,476.718,136253
544.507,474.615,135733
544.445,472.511,135651
544.383,470.407,135748
544.32,468.302,135392
544.258,466.197,135515
544.195,464.091,134254
544.133,461.985,135000
544.071,459.878,134746
544.008,457.771,134578
543.946,455.663,134209
543.884,453.555,133892
543.821,451.446,134685
543.759,449.337,133492
543.696,447.227,132871
543.634,445.117,133009
543.572,443.006,132630
543.509,440.895,132408
543.447,438.784,132233
543.385,436.671,131846
543.322,434.559,132620
543.26,432.446,132005
543.198,430.332,131889
543.135,428.218,132001
543.073,426.104,132046
543.01,423.989,132228
542.948,421.873,131987
542.886,419.757,131546
542.823,417.641,131867
542.761,415.524,131899
542.699,413.407,131977
542.636,411.289,132318
542.574,409.17,131859
542.511,407.051,131851
542.449,404.932,132291
542.387,402.812,132188
542.324,400.692,131859
542.262,398.571,131588
542.2,396.45,131391
542.137,394.328,130886
542.075,392.205,131230
542.012,390.083,130790
541.95,387.959,130464
541.888,385.836,130101
541.825,383.711,129434
541.763,381.587,129608
541.701,379.461,129427
541.638,377.336,129762
541.576,375.209,129072
541.514,373.083,129169
541.451,370.955,128334
541.389,368.828,128833
541.326,366.7,128106
541.264,364.571,128228
541.202,362.442,128434
541.139,360.312,128254
541.077,358.182,128305
541.015,356.051,127951
540.952,353.92,128134
540.89,351.789,127784
540.827,349.657,127447
540.765,347.524,127305
540.703,345.391,127459
540.64,343.257,126825
540.578,341.123,125895
540.516,338.989,125258
540.453,336.854,125354
540.391,334.718,124228
540.328,332.582,123684
540.266,330.445,122897
540.204,328.308,122759
540.141,326.171,122593
540.079,324.033,122375
540.017,321.894,122679
539.954,319.755,121981
539.892,317.616,121824
539.83,315.476,122909
539.767,313.335,122241
539.705,311.194,122440
539.642,309.053,122799
539.58,306.911,122949
539.518,304.768,122870
539.455,302.625,122387
539.393,300.482,120882
539.331,298.338,120971
539.268,296.194,119695
539.206,294.049,118002
539.143,291.903,117144
539.081,289.757,115671
539.019,287.611,114603
538.956,285.464,113999
538.894,283.316,113040
538.832,281.169,113403
538.769,279.02,113746
538.707,276.871,113611
538.644,274.722,113406
538.582,272.572,111663
538.52,270.421,107710
538.457,268.271,102538
538.395,266.119,95146
538.333,263.967,88820
538.27,261.815,81658
538.208,259.662,76471
538.146,257.508,72022
538.083,255.355,68661
538.021,253.2,66495
537.958,251.045,65037
537.896,248.89,63998
537.834,246.734,63595
537.771,244.578,63198
537.709,242.421,62858
537.647,240.263,62559
537.584,238.105,62550
537.522,235.947,62424
537.459,233.788,62488
537.397,231.629,62247
537.335,229.469,62151
537.272,227.308,62170
537.21,225.147,62155
537.148,222.986,62098
537.085,220.824,62187
537.023,218.662,62081
536.96,216.499,62162
536.898,214.335,62109
536.836,212.171,62019
536.773,210.007,61966
536.711,207.842,61966
536.661,206.11,62006