File: tomke/20240809_Si_on_TiO2/20240809/raw_data/Si_onTiO2_60mA_30mW_30sec_5acc_545nm_bg.txt
Wavelength(nm), Raman shift(cm^-1), Intensity(counts)
553.364,768.549,91315
553.301,766.512,91865
553.239,764.475,91837
553.177,762.437,91151
553.114,760.398,91723
553.052,758.359,91545
552.99,756.32,91572
552.927,754.28,91283
552.865,752.24,91169
552.802,750.199,91245
552.74,748.158,91357
552.678,746.116,91260
552.615,744.074,90868
552.553,742.032,91238
552.491,739.989,90892
552.428,737.945,90852
552.366,735.901,90816
552.304,733.857,90804
552.241,731.812,91104
552.179,729.766,91039
552.116,727.721,90663
552.054,725.674,90995
551.992,723.628,90242
551.929,721.58,90642
551.867,719.533,90944
551.805,717.485,90722
551.742,715.436,90426
551.68,713.387,91151
551.617,711.337,90702
551.555,709.287,90720
551.493,707.237,90782
551.43,705.186,90664
551.368,703.135,90741
551.306,701.083,90714
551.243,699.031,90858
551.181,696.978,90950
551.119,694.925,90753
551.056,692.871,90845
550.994,690.817,90878
550.931,688.762,90803
550.869,686.707,90571
550.807,684.651,90230
550.744,682.595,90438
550.682,680.539,90661
550.62,678.482,90687
550.557,676.425,90526
550.495,674.367,90331
550.432,672.308,90862
550.37,670.25,90323
550.308,668.19,89604
550.245,666.131,89740
550.183,664.07,90267
550.121,662.01,89969
550.058,659.948,90424
549.996,657.887,89573
549.933,655.825,89756
549.871,653.762,89622
549.809,651.699,89823
549.746,649.636,90007
549.684,647.572,89896
549.622,645.507,89737
549.559,643.442,89565
549.497,641.377,89704
549.435,639.311,89784
549.372,637.245,89878
549.31,635.178,89710
549.247,633.111,89819
549.185,631.043,89735
549.123,628.975,89759
549.06,626.906,90108
548.998,624.837,89952
548.936,622.768,89855
548.873,620.698,89726
548.811,618.627,89439
548.748,616.556,89800
548.686,614.485,89353
548.624,612.413,89308
548.561,610.34,89191
548.499,608.267,89213
548.437,606.194,89080
548.374,604.12,88834
548.312,602.046,88579
548.249,599.971,88949
548.187,597.896,88742
548.125,595.82,88547
548.062,593.744,88090
548.0,591.667,87974
547.938,589.59,87926
547.875,587.513,88235
547.813,585.434,88007
547.751,583.356,87914
547.688,581.277,87583
547.626,579.197,87517
547.563,577.117,87311
547.501,575.037,87466
547.439,572.956,87439
547.376,570.875,87378
547.314,568.793,97497
547.252,566.71,87669
547.189,564.628,87427
547.127,562.544,87017
547.064,560.461,86981
547.002,558.376,87172
546.94,556.292,87005
546.877,554.206,86980
546.815,552.121,86676
546.753,550.035,86910
546.69,547.948,86602
546.628,545.861,86490
546.565,543.773,86605
546.503,541.685,86299
546.441,539.597,87033
546.378,537.508,86218
546.316,535.418,86264
546.254,533.328,86191
546.191,531.238,85949
546.129,529.147,85900
546.067,527.056,85697
546.004,524.964,85403
545.942,522.871,85505
545.879,520.778,85602
545.817,518.685,85271
545.755,516.591,85355
545.692,514.497,85037
545.63,512.402,85286
545.568,510.307,85395
545.505,508.211,84660
545.443,506.115,85281
545.38,504.019,84728
545.318,501.922,85140
545.256,499.824,84740
545.193,497.726,84664
545.131,495.627,84558
545.069,493.528,84862
545.006,491.429,84947
544.944,489.329,84817
544.881,487.228,85049
544.819,485.127,84549
544.757,483.026,84551
544.694,480.924,84736
544.632,478.821,84868
544.57,476.718,84465
544.507,474.615,84654
544.445,472.511,84420
544.383,470.407,85040
544.32,468.302,84953
544.258,466.197,84823
544.195,464.091,84698
544.133,461.985,84471
544.071,459.878,84336
544.008,457.771,84443
543.946,455.663,84463
543.884,453.555,84229
543.821,451.446,84151
543.759,449.337,83780
543.696,447.227,83801
543.634,445.117,83918
543.572,443.006,84029
543.509,440.895,83655
543.447,438.784,83908
543.385,436.671,83949
543.322,434.559,83542
543.26,432.446,83866
543.198,430.332,83557
543.135,428.218,83566
543.073,426.104,83713
543.01,423.989,83549
542.948,421.873,83024
542.886,419.757,83639
542.823,417.641,83616
542.761,415.524,83412
542.699,413.407,83397
542.636,411.289,83459
542.574,409.17,83445
542.511,407.051,83156
542.449,404.932,83526
542.387,402.812,83494
542.324,400.692,83293
542.262,398.571,83356
542.2,396.45,83231
542.137,394.328,83179
542.075,392.205,83377
542.012,390.083,83375
541.95,387.959,82966
541.888,385.836,82829
541.825,383.711,82899
541.763,381.587,82350
541.701,379.461,82326
541.638,377.336,82464
541.576,375.209,82534
541.514,373.083,82284
541.451,370.955,81938
541.389,368.828,82381
541.326,366.7,82275
541.264,364.571,82085
541.202,362.442,82109
541.139,360.312,82402
541.077,358.182,82204
541.015,356.051,81958
540.952,353.92,82033
540.89,351.789,81961
540.827,349.657,81938
540.765,347.524,81779
540.703,345.391,81432
540.64,343.257,81527
540.578,341.123,81074
540.516,338.989,81217
540.453,336.854,80910
540.391,334.718,80941
540.328,332.582,80534
540.266,330.445,80518
540.204,328.308,80216
540.141,326.171,80349
540.079,324.033,80057
540.017,321.894,80184
539.954,319.755,80319
539.892,317.616,80116
539.83,315.476,80046
539.767,313.335,80514
539.705,311.194,80110
539.642,309.053,80160
539.58,306.911,79962
539.518,304.768,80200
539.455,302.625,79984
539.393,300.482,79845
539.331,298.338,79900
539.268,296.194,79416
539.206,294.049,78988
539.143,291.903,78468
539.081,289.757,78238
539.019,287.611,77811
538.956,285.464,77163
538.894,283.316,77313
538.832,281.169,77350
538.769,279.02,77031
538.707,276.871,77399
538.644,274.722,77113
538.582,272.572,76690
538.52,270.421,75091
538.457,268.271,73782
538.395,266.119,71363
538.333,263.967,69338
538.27,261.815,67324
538.208,259.662,65365
538.146,257.508,64114
538.083,255.355,63066
538.021,253.2,62369
537.958,251.045,61758
537.896,248.89,61717
537.834,246.734,61426
537.771,244.578,61289
537.709,242.421,61299
537.647,240.263,61138
537.584,238.105,61108
537.522,235.947,61029
537.459,233.788,61076
537.397,231.629,60963
537.335,229.469,60973
537.272,227.308,61077
537.21,225.147,60973
537.148,222.986,60997
537.085,220.824,60948
537.023,218.662,60894
536.96,216.499,61010
536.898,214.335,60932
536.836,212.171,60915
536.773,210.007,60930
536.711,207.842,60937
553.364,768.549,91820
553.301,766.512,92646
553.239,764.475,92544
553.177,762.437,92119
553.114,760.398,92250
553.052,758.359,92102
552.99,756.32,92468
552.927,754.28,92257
552.865,752.24,92455
552.802,750.199,91723
552.74,748.158,91737
552.678,746.116,91845
552.615,744.074,91903
552.553,742.032,91753
552.491,739.989,91843
552.428,737.945,91506
552.366,735.901,91407
552.304,733.857,91772
552.241,731.812,91910
552.179,729.766,91951
552.116,727.721,91882
552.054,725.674,91761
551.992,723.628,91323
551.929,721.58,91717
551.867,719.533,91718
551.805,717.485,91624
551.742,715.436,91854
551.68,713.387,91858
551.617,711.337,91094
551.555,709.287,91684
551.493,707.237,91599
551.43,705.186,91565
551.368,703.135,91531
551.306,701.083,91574
551.243,699.031,91489
551.181,696.978,91478
551.119,694.925,91734
551.056,692.871,91672
550.994,690.817,91781
550.931,688.762,91390
550.869,686.707,91760
550.807,684.651,91717
550.744,682.595,91754
550.682,680.539,91545
550.62,678.482,91284
550.557,676.425,91005
550.495,674.367,90989
550.432,672.308,91098
550.37,670.25,91389
550.308,668.19,90854
550.245,666.131,91051
550.183,664.07,90535
550.121,662.01,90709
550.058,659.948,90803
549.996,657.887,90597
549.933,655.825,90477
549.871,653.762,90277
549.809,651.699,90415
549.746,649.636,90206
549.684,647.572,90466
549.622,645.507,90563
549.559,643.442,90079
549.497,641.377,90406
549.435,639.311,90467
549.372,637.245,90706
549.31,635.178,90375
549.247,633.111,90649
549.185,631.043,90616
549.123,628.975,90635
549.06,626.906,90634
548.998,624.837,90618
548.936,622.768,90451
548.873,620.698,90501
548.811,618.627,90661
548.748,616.556,90777
548.686,614.485,89840
548.624,612.413,90249
548.561,610.34,90123
548.499,608.267,90288
548.437,606.194,89664
548.374,604.12,90071
548.312,602.046,90084
548.249,599.971,89444
548.187,597.896,89439
548.125,595.82,89422
548.062,593.744,89115
548.0,591.667,88853
547.938,589.59,88931
547.875,587.513,88424
547.813,585.434,88595
547.751,583.356,88543
547.688,581.277,88514
547.626,579.197,88335
547.563,577.117,88340
547.501,575.037,87486
547.439,572.956,88134
547.376,570.875,87949
547.314,568.793,88470
547.252,566.71,87875
547.189,564.628,87765
547.127,562.544,87586
547.064,560.461,87517
547.002,558.376,87489
546.94,556.292,87450
546.877,554.206,87479
546.815,552.121,87753
546.753,550.035,87346
546.69,547.948,87591
546.628,545.861,87288
546.565,543.773,87257
546.503,541.685,87366
546.441,539.597,87048
546.378,537.508,87127
546.316,535.418,86731
546.254,533.328,86836
546.191,531.238,86667
546.129,529.147,86839
546.067,527.056,86257
546.004,524.964,85951
545.942,522.871,86119
545.879,520.778,86026
545.817,518.685,85781
545.755,516.591,86073
545.692,514.497,85033
545.63,512.402,85636
545.568,510.307,85748
545.505,508.211,85321
545.443,506.115,85610
545.38,504.019,85723
545.318,501.922,85269
545.256,499.824,85214
545.193,497.726,85381
545.131,495.627,85428
545.069,493.528,85187
545.006,491.429,85216
544.944,489.329,85471
544.881,487.228,85329
544.819,485.127,85451
544.757,483.026,85418
544.694,480.924,85475
544.632,478.821,85333
544.57,476.718,85373
544.507,474.615,85391
544.445,472.511,85518
544.383,470.407,85624
544.32,468.302,85246
544.258,466.197,85228
544.195,464.091,84979
544.133,461.985,85180
544.071,459.878,85316
544.008,457.771,84776
543.946,455.663,84805
543.884,453.555,84810
543.821,451.446,84811
543.759,449.337,84690
543.696,447.227,84165
543.634,445.117,84713
543.572,443.006,84189
543.509,440.895,84338
543.447,438.784,84141
543.385,436.671,83824
543.322,434.559,83954
543.26,432.446,84059
543.198,430.332,84174
543.135,428.218,84178
543.073,426.104,84130
543.01,423.989,83723
542.948,421.873,83849
542.886,419.757,83877
542.823,417.641,83975
542.761,415.524,84417
542.699,413.407,84343
542.636,411.289,84126
542.574,409.17,84337
542.511,407.051,83951
542.449,404.932,84021
542.387,402.812,84058
542.324,400.692,83994
542.262,398.571,83820
542.2,396.45,83497
542.137,394.328,84099
542.075,392.205,83498
542.012,390.083,83449
541.95,387.959,83264
541.888,385.836,83339
541.825,383.711,83147
541.763,381.587,83325
541.701,379.461,83434
541.638,377.336,83081
541.576,375.209,83082
541.514,373.083,82835
541.451,370.955,82952
541.389,368.828,82966
541.326,366.7,82592
541.264,364.571,82875
541.202,362.442,82388
541.139,360.312,82759
541.077,358.182,82720
541.015,356.051,82760
540.952,353.92,82499
540.89,351.789,82185
540.827,349.657,82680
540.765,347.524,82327
540.703,345.391,82025
540.64,343.257,82186
540.578,341.123,81933
540.516,338.989,81671
540.453,336.854,81515
540.391,334.718,81389
540.328,332.582,81058
540.266,330.445,81025
540.204,328.308,80788
540.141,326.171,80651
540.079,324.033,80398
540.017,321.894,80559
539.954,319.755,80509
539.892,317.616,80591
539.83,315.476,80564
539.767,313.335,80610
539.705,311.194,80531
539.642,309.053,80949
539.58,306.911,80728
539.518,304.768,80571
539.455,302.625,80689
539.393,300.482,80295
539.331,298.338,80504
539.268,296.194,79949
539.206,294.049,79394
539.143,291.903,78903
539.081,289.757,78518
539.019,287.611,78389
538.956,285.464,78181
538.894,283.316,77705
538.832,281.169,77364
538.769,279.02,77835
538.707,276.871,83340
538.644,274.722,77323
538.582,272.572,77083
538.52,270.421,75942
538.457,268.271,74039
538.395,266.119,72115
538.333,263.967,69434
538.27,261.815,67276
538.208,259.662,65587
538.146,257.508,64012
538.083,255.355,63064
538.021,253.2,62377
537.958,251.045,62012
537.896,248.89,61629
537.834,246.734,61427
537.771,244.578,61276
537.709,242.421,61331
537.647,240.263,61145
537.584,238.105,61084
537.522,235.947,61036
537.459,233.788,61030
537.397,231.629,61103
537.335,229.469,60956
537.272,227.308,61018
537.21,225.147,60890
537.148,222.986,60930
537.085,220.824,60873
537.023,218.662,60875
536.96,216.499,60873
536.898,214.335,61026
536.836,212.171,61010
536.773,210.007,60957
536.711,207.842,60917
553.364,768.549,91314
553.301,766.512,91708
553.239,764.475,91446
553.177,762.437,91529
553.114,760.398,91858
553.052,758.359,92021
552.99,756.32,91813
552.927,754.28,91818
552.865,752.24,91801
552.802,750.199,91694
552.74,748.158,91542
552.678,746.116,91265
552.615,744.074,91378
552.553,742.032,90626
552.491,739.989,91329
552.428,737.945,90820
552.366,735.901,91314
552.304,733.857,91295
552.241,731.812,90724
552.179,729.766,91426
552.116,727.721,90867
552.054,725.674,90817
551.992,723.628,90971
551.929,721.58,91345
551.867,719.533,91127
551.805,717.485,90929
551.742,715.436,91140
551.68,713.387,90466
551.617,711.337,90824
551.555,709.287,91110
551.493,707.237,91034
551.43,705.186,90872
551.368,703.135,90658
551.306,701.083,90943
551.243,699.031,91004
551.181,696.978,90916
551.119,694.925,90883
551.056,692.871,91135
550.994,690.817,90894
550.931,688.762,90983
550.869,686.707,90962
550.807,684.651,90711
550.744,682.595,90527
550.682,680.539,90667
550.62,678.482,90386
550.557,676.425,90668
550.495,674.367,90897
550.432,672.308,90208
550.37,670.25,90409
550.308,668.19,90438
550.245,666.131,90591
550.183,664.07,90158
550.121,662.01,89930
550.058,659.948,89846
549.996,657.887,90264
549.933,655.825,90038
549.871,653.762,90083
549.809,651.699,89839
549.746,649.636,89943
549.684,647.572,89775
549.622,645.507,89864
549.559,643.442,90276
549.497,641.377,90043
549.435,639.311,89611
549.372,637.245,89736
549.31,635.178,89881
549.247,633.111,89975
549.185,631.043,89985
549.123,628.975,90318
549.06,626.906,90113
548.998,624.837,90111
548.936,622.768,90176
548.873,620.698,89763
548.811,618.627,90053
548.748,616.556,89778
548.686,614.485,89384
548.624,612.413,89653
548.561,610.34,89464
548.499,608.267,88967
548.437,606.194,89108
548.374,604.12,89234
548.312,602.046,89025
548.249,599.971,89214
548.187,597.896,88796
548.125,595.82,88559
548.062,593.744,88384
548.0,591.667,88330
547.938,589.59,88480
547.875,587.513,87955
547.813,585.434,88166
547.751,583.356,87751
547.688,581.277,87816
547.626,579.197,87630
547.563,577.117,87550
547.501,575.037,87590
547.439,572.956,87271
547.376,570.875,87235
547.314,568.793,87478
547.252,566.71,87159
547.189,564.628,87359
547.127,562.544,87309
547.064,560.461,87179
547.002,558.376,87139
546.94,556.292,86670
546.877,554.206,86789
546.815,552.121,87134
546.753,550.035,86944
546.69,547.948,87187
546.628,545.861,86605
546.565,543.773,86819
546.503,541.685,86693
546.441,539.597,86793
546.378,537.508,86508
546.316,535.418,86566
546.254,533.328,86506
546.191,531.238,85867
546.129,529.147,86152
546.067,527.056,85937
546.004,524.964,85724
545.942,522.871,85760
545.879,520.778,85264
545.817,518.685,85232
545.755,516.591,85341
545.692,514.497,85547
545.63,512.402,85109
545.568,510.307,85285
545.505,508.211,84747
545.443,506.115,85134
545.38,504.019,84791
545.318,501.922,84867
545.256,499.824,84956
545.193,497.726,84646
545.131,495.627,84715
545.069,493.528,84542
545.006,491.429,84920
544.944,489.329,84836
544.881,487.228,84813
544.819,485.127,85025
544.757,483.026,84806
544.694,480.924,84969
544.632,478.821,84838
544.57,476.718,85257
544.507,474.615,84649
544.445,472.511,85131
544.383,470.407,84464
544.32,468.302,84782
544.258,466.197,84895
544.195,464.091,84829
544.133,461.985,84724
544.071,459.878,84475
544.008,457.771,84690
543.946,455.663,84493
543.884,453.555,84344
543.821,451.446,84101
543.759,449.337,84223
543.696,447.227,84194
543.634,445.117,83762
543.572,443.006,83873
543.509,440.895,84053
543.447,438.784,84074
543.385,436.671,83925
543.322,434.559,83718
543.26,432.446,83593
543.198,430.332,83357
543.135,428.218,83541
543.073,426.104,83940
543.01,423.989,83701
542.948,421.873,83581
542.886,419.757,83688
542.823,417.641,83817
542.761,415.524,83434
542.699,413.407,83743
542.636,411.289,83708
542.574,409.17,83531
542.511,407.051,83851
542.449,404.932,83557
542.387,402.812,83864
542.324,400.692,83373
542.262,398.571,83283
542.2,396.45,83257
542.137,394.328,83307
542.075,392.205,83044
542.012,390.083,83147
541.95,387.959,82771
541.888,385.836,83020
541.825,383.711,82609
541.763,381.587,82820
541.701,379.461,82788
541.638,377.336,82671
541.576,375.209,82649
541.514,373.083,82103
541.451,370.955,82376
541.389,368.828,82582
541.326,366.7,82437
541.264,364.571,82589
541.202,362.442,82319
541.139,360.312,82383
541.077,358.182,81900
541.015,356.051,81938
540.952,353.92,82304
540.89,351.789,82236
540.827,349.657,82209
540.765,347.524,81841
540.703,345.391,81448
540.64,343.257,81918
540.578,341.123,81708
540.516,338.989,81472
540.453,336.854,81268
540.391,334.718,80860
540.328,332.582,80677
540.266,330.445,80748
540.204,328.308,80418
540.141,326.171,80469
540.079,324.033,79913
540.017,321.894,80180
539.954,319.755,80101
539.892,317.616,80005
539.83,315.476,80349
539.767,313.335,80318
539.705,311.194,80577
539.642,309.053,80312
539.58,306.911,80307
539.518,304.768,80318
539.455,302.625,80131
539.393,300.482,80153
539.331,298.338,80129
539.268,296.194,79635
539.206,294.049,79250
539.143,291.903,78849
539.081,289.757,78339
539.019,287.611,77870
538.956,285.464,77627
538.894,283.316,77376
538.832,281.169,77153
538.769,279.02,77679
538.707,276.871,77164
538.644,274.722,77547
538.582,272.572,76826
538.52,270.421,75677
538.457,268.271,73735
538.395,266.119,71905
538.333,263.967,69093
538.27,261.815,67149
538.208,259.662,65611
538.146,257.508,64039
538.083,255.355,63087
538.021,253.2,62340
537.958,251.045,61927
537.896,248.89,61688
537.834,246.734,61413
537.771,244.578,61409
537.709,242.421,61290
537.647,240.263,61136
537.584,238.105,61150
537.522,235.947,61096
537.459,233.788,61052
537.397,231.629,61141
537.335,229.469,61117
537.272,227.308,61001
537.21,225.147,60894
537.148,222.986,60982
537.085,220.824,61084
537.023,218.662,61013
536.96,216.499,60951
536.898,214.335,60903
536.836,212.171,60989
536.773,210.007,61037
536.711,207.842,61003
553.364,768.549,92234
553.301,766.512,92823
553.239,764.475,92954
553.177,762.437,93200
553.114,760.398,93108
553.052,758.359,92939
552.99,756.32,93085
552.927,754.28,92825
552.865,752.24,92453
552.802,750.199,92752
552.74,748.158,92554
552.678,746.116,92838
552.615,744.074,92546
552.553,742.032,92434
552.491,739.989,92482
552.428,737.945,92499
552.366,735.901,92213
552.304,733.857,92338
552.241,731.812,92483
552.179,729.766,92276
552.116,727.721,92504
552.054,725.674,92134
551.992,723.628,91966
551.929,721.58,92476
551.867,719.533,92700
551.805,717.485,92267
551.742,715.436,91918
551.68,713.387,92285
551.617,711.337,92225
551.555,709.287,92429
551.493,707.237,92325
551.43,705.186,92364
551.368,703.135,91928
551.306,701.083,92145
551.243,699.031,92216
551.181,696.978,92175
551.119,694.925,92273
551.056,692.871,92312
550.994,690.817,92047
550.931,688.762,92526
550.869,686.707,91842
550.807,684.651,92051
550.744,682.595,92301
550.682,680.539,92056
550.62,678.482,91784
550.557,676.425,92094
550.495,674.367,91763
550.432,672.308,92019
550.37,670.25,91674
550.308,668.19,91637
550.245,666.131,91521
550.183,664.07,91430
550.121,662.01,91068
550.058,659.948,91316
549.996,657.887,91261
549.933,655.825,91478
549.871,653.762,91401
549.809,651.699,91325
549.746,649.636,91133
549.684,647.572,91296
549.622,645.507,91162
549.559,643.442,91140
549.497,641.377,90883
549.435,639.311,90901
549.372,637.245,91028
549.31,635.178,91015
549.247,633.111,91007
549.185,631.043,91240
549.123,628.975,90640
549.06,626.906,91272
548.998,624.837,91010
548.936,622.768,91288
548.873,620.698,91380
548.811,618.627,91135
548.748,616.556,90764
548.686,614.485,91042
548.624,612.413,90755
548.561,610.34,90675
548.499,608.267,90948
548.437,606.194,90261
548.374,604.12,90628
548.312,602.046,90224
548.249,599.971,90165
548.187,597.896,89996
548.125,595.82,89999
548.062,593.744,89664
548.0,591.667,89953
547.938,589.59,89256
547.875,587.513,89037
547.813,585.434,89172
547.751,583.356,88879
547.688,581.277,89049
547.626,579.197,89017
547.563,577.117,88826
547.501,575.037,88473
547.439,572.956,88280
547.376,570.875,88343
547.314,568.793,88192
547.252,566.71,88261
547.189,564.628,88063
547.127,562.544,88752
547.064,560.461,88610
547.002,558.376,88325
546.94,556.292,88030
546.877,554.206,88488
546.815,552.121,88372
546.753,550.035,88161
546.69,547.948,87929
546.628,545.861,87633
546.565,543.773,87903
546.503,541.685,87937
546.441,539.597,87846
546.378,537.508,87612
546.316,535.418,87675
546.254,533.328,87300
546.191,531.238,87433
546.129,529.147,87014
546.067,527.056,87057
546.004,524.964,86495
545.942,522.871,86854
545.879,520.778,86533
545.817,518.685,86721
545.755,516.591,86268
545.692,514.497,86329
545.63,512.402,86227
545.568,510.307,85892
545.505,508.211,85975
545.443,506.115,86045
545.38,504.019,85745
545.318,501.922,85824
545.256,499.824,85750
545.193,497.726,85827
545.131,495.627,86128
545.069,493.528,86000
545.006,491.429,86056
544.944,489.329,85592
544.881,487.228,86175
544.819,485.127,85992
544.757,483.026,86293
544.694,480.924,86012
544.632,478.821,85863
544.57,476.718,85743
544.507,474.615,85980
544.445,472.511,85960
544.383,470.407,86157
544.32,468.302,85812
544.258,466.197,85713
544.195,464.091,85976
544.133,461.985,91821
544.071,459.878,85808
544.008,457.771,85696
543.946,455.663,85395
543.884,453.555,85575
543.821,451.446,85210
543.759,449.337,85381
543.696,447.227,84971
543.634,445.117,84843
543.572,443.006,84888
543.509,440.895,84558
543.447,438.784,84547
543.385,436.671,84794
543.322,434.559,84403
543.26,432.446,84768
543.198,430.332,84393
543.135,428.218,84408
543.073,426.104,84645
543.01,423.989,84662
542.948,421.873,84486
542.886,419.757,84224
542.823,417.641,84696
542.761,415.524,84558
542.699,413.407,84943
542.636,411.289,84624
542.574,409.17,84665
542.511,407.051,84863
542.449,404.932,84128
542.387,402.812,84516
542.324,400.692,84567
542.262,398.571,84591
542.2,396.45,84475
542.137,394.328,84337
542.075,392.205,83891
542.012,390.083,84100
541.95,387.959,83840
541.888,385.836,84097
541.825,383.711,84025
541.763,381.587,83348
541.701,379.461,83489
541.638,377.336,83582
541.576,375.209,83444
541.514,373.083,83587
541.451,370.955,83505
541.389,368.828,83216
541.326,366.7,83169
541.264,364.571,83349
541.202,362.442,83190
541.139,360.312,83357
541.077,358.182,83433
541.015,356.051,83097
540.952,353.92,82939
540.89,351.789,82858
540.827,349.657,82581
540.765,347.524,82604
540.703,345.391,82582
540.64,343.257,82514
540.578,341.123,82369
540.516,338.989,82274
540.453,336.854,81933
540.391,334.718,81679
540.328,332.582,81739
540.266,330.445,81704
540.204,328.308,81677
540.141,326.171,80916
540.079,324.033,81006
540.017,321.894,80869
539.954,319.755,80754
539.892,317.616,81041
539.83,315.476,81203
539.767,313.335,81264
539.705,311.194,81224
539.642,309.053,81067
539.58,306.911,81302
539.518,304.768,81345
539.455,302.625,81403
539.393,300.482,80932
539.331,298.338,80507
539.268,296.194,80594
539.206,294.049,79710
539.143,291.903,79203
539.081,289.757,78749
539.019,287.611,78484
538.956,285.464,78058
538.894,283.316,78269
538.832,281.169,78117
538.769,279.02,78097
538.707,276.871,78055
538.644,274.722,77992
538.582,272.572,77513
538.52,270.421,76268
538.457,268.271,74498
538.395,266.119,71884
538.333,263.967,69427
538.27,261.815,67432
538.208,259.662,65703
538.146,257.508,64057
538.083,255.355,63118
538.021,253.2,62397
537.958,251.045,62025
537.896,248.89,61675
537.834,246.734,61441
537.771,244.578,61422
537.709,242.421,61208
537.647,240.263,61325
537.584,238.105,61125
537.522,235.947,85927
537.459,233.788,61039
537.397,231.629,61063
537.335,229.469,61081
537.272,227.308,60922
537.21,225.147,60933
537.148,222.986,61007
537.085,220.824,61019
537.023,218.662,60914
536.96,216.499,60964
536.898,214.335,61066
536.836,212.171,60816
536.773,210.007,60910
536.711,207.842,61001
553.364,768.549,92477
553.301,766.512,93040
553.239,764.475,93031
553.177,762.437,92591
553.114,760.398,92585
553.052,758.359,92969
552.99,756.32,92366
552.927,754.28,92779
552.865,752.24,92431
552.802,750.199,92282
552.74,748.158,92580
552.678,746.116,92402
552.615,744.074,92296
552.553,742.032,92500
552.491,739.989,92042
552.428,737.945,92553
552.366,735.901,91850
552.304,733.857,92110
552.241,731.812,92534
552.179,729.766,92118
552.116,727.721,92265
552.054,725.674,91916
551.992,723.628,92502
551.929,721.58,92626
551.867,719.533,92513
551.805,717.485,92298
551.742,715.436,91707
551.68,713.387,92176
551.617,711.337,92382
551.555,709.287,92099
551.493,707.237,91843
551.43,705.186,91999
551.368,703.135,92035
551.306,701.083,92370
551.243,699.031,92299
551.181,696.978,91941
551.119,694.925,92239
551.056,692.871,91931
550.994,690.817,91869
550.931,688.762,92057
550.869,686.707,91772
550.807,684.651,92141
550.744,682.595,92083
550.682,680.539,91506
550.62,678.482,92071
550.557,676.425,91636
550.495,674.367,91344
550.432,672.308,91810
550.37,670.25,91649
550.308,668.19,91119
550.245,666.131,91111
550.183,664.07,91195
550.121,662.01,91347
550.058,659.948,90825
549.996,657.887,91269
549.933,655.825,91215
549.871,653.762,90508
549.809,651.699,90529
549.746,649.636,91066
549.684,647.572,90743
549.622,645.507,91104
549.559,643.442,90750
549.497,641.377,90719
549.435,639.311,90890
549.372,637.245,91001
549.31,635.178,91100
549.247,633.111,91059
549.185,631.043,90828
549.123,628.975,90942
549.06,626.906,91241
548.998,624.837,90656
548.936,622.768,90694
548.873,620.698,90928
548.811,618.627,90819
548.748,616.556,90814
548.686,614.485,90662
548.624,612.413,90549
548.561,610.34,90807
548.499,608.267,90533
548.437,606.194,90138
548.374,604.12,90366
548.312,602.046,90150
548.249,599.971,90035
548.187,597.896,89821
548.125,595.82,89485
548.062,593.744,89815
548.0,591.667,89116
547.938,589.59,89263
547.875,587.513,89142
547.813,585.434,88747
547.751,583.356,89023
547.688,581.277,88906
547.626,579.197,88526
547.563,577.117,88653
547.501,575.037,88597
547.439,572.956,88538
547.376,570.875,88163
547.314,568.793,88419
547.252,566.71,87954
547.189,564.628,88432
547.127,562.544,88091
547.064,560.461,88145
547.002,558.376,88285
546.94,556.292,88147
546.877,554.206,87814
546.815,552.121,88087
546.753,550.035,88154
546.69,547.948,87751
546.628,545.861,87596
546.565,543.773,87557
546.503,541.685,109592
546.441,539.597,87373
546.378,537.508,87294
546.316,535.418,87383
546.254,533.328,86976
546.191,531.238,86884
546.129,529.147,87134
546.067,527.056,86896
546.004,524.964,86484
545.942,522.871,86335
545.879,520.778,86514
545.817,518.685,86551
545.755,516.591,86313
545.692,514.497,86372
545.63,512.402,85923
545.568,510.307,86173
545.505,508.211,86335
545.443,506.115,85646
545.38,504.019,85791
545.318,501.922,85408
545.256,499.824,85714
545.193,497.726,85546
545.131,495.627,85704
545.069,493.528,85811
545.006,491.429,85926
544.944,489.329,85752
544.881,487.228,85913
544.819,485.127,85772
544.757,483.026,85572
544.694,480.924,86052
544.632,478.821,85869
544.57,476.718,85966
544.507,474.615,85922
544.445,472.511,85919
544.383,470.407,85855
544.32,468.302,85516
544.258,466.197,85631
544.195,464.091,85513
544.133,461.985,86041
544.071,459.878,85072
544.008,457.771,85955
543.946,455.663,85464
543.884,453.555,85224
543.821,451.446,84855
543.759,449.337,84827
543.696,447.227,84770
543.634,445.117,84538
543.572,443.006,84689
543.509,440.895,84576
543.447,438.784,84461
543.385,436.671,84307
543.322,434.559,84693
543.26,432.446,84284
543.198,430.332,84271
543.135,428.218,84243
543.073,426.104,83918
543.01,423.989,84634
542.948,421.873,84432
542.886,419.757,84728
542.823,417.641,84629
542.761,415.524,84407
542.699,413.407,84590
542.636,411.289,84531
542.574,409.17,84590
542.511,407.051,84646
542.449,404.932,84669
542.387,402.812,84700
542.324,400.692,84271
542.262,398.571,84554
542.2,396.45,84299
542.137,394.328,83981
542.075,392.205,84182
542.012,390.083,84061
541.95,387.959,83619
541.888,385.836,83765
541.825,383.711,83749
541.763,381.587,83906
541.701,379.461,83785
541.638,377.336,83086
541.576,375.209,83275
541.514,373.083,83270
541.451,370.955,83332
541.389,368.828,83096
541.326,366.7,83183
541.264,364.571,82930
541.202,362.442,83246
541.139,360.312,83227
541.077,358.182,82962
541.015,356.051,82828
540.952,353.92,82870
540.89,351.789,82927
540.827,349.657,82963
540.765,347.524,83010
540.703,345.391,82824
540.64,343.257,82389
540.578,341.123,82315
540.516,338.989,82167
540.453,336.854,82235
540.391,334.718,81595
540.328,332.582,81501
540.266,330.445,81481
540.204,328.308,81263
540.141,326.171,80914
540.079,324.033,80797
540.017,321.894,80960
539.954,319.755,80964
539.892,317.616,80991
539.83,315.476,81017
539.767,313.335,81079
539.705,311.194,81242
539.642,309.053,81075
539.58,306.911,81182
539.518,304.768,81138
539.455,302.625,80628
539.393,300.482,80923
539.331,298.338,80523
539.268,296.194,80455
539.206,294.049,79901
539.143,291.903,79522
539.081,289.757,79072
539.019,287.611,78397
538.956,285.464,78264
538.894,283.316,77903
538.832,281.169,77955
538.769,279.02,77655
538.707,276.871,78032
538.644,274.722,78035
538.582,272.572,77697
538.52,270.421,76178
538.457,268.271,73939
538.395,266.119,72203
538.333,263.967,69679
538.27,261.815,67546
538.208,259.662,65574
538.146,257.508,64101
538.083,255.355,63391
538.021,253.2,62367
537.958,251.045,61871
537.896,248.89,61712
537.834,246.734,61479
537.771,244.578,61357
537.709,242.421,61218
537.647,240.263,61208
537.584,238.105,61171
537.522,235.947,61162
537.459,233.788,60998
537.397,231.629,61091
537.335,229.469,61029
537.272,227.308,61124
537.21,225.147,61084
537.148,222.986,61040
537.085,220.824,61097
537.023,218.662,60959
536.96,216.499,60994
536.898,214.335,61009
536.836,212.171,60926
536.773,210.007,61051
536.711,207.842,61090
536.661,206.11,61096