File: tomke/20240809_Si_on_TiO2/20240809/raw_data/Si_onTiO2_150mA_30mW_30sec_5acc_545nm.txt
Wavelength(nm), Raman shift(cm^-1), Intensity(counts)
553.364,768.549,499279
553.301,766.512,500067
553.239,764.475,500200
553.177,762.437,499195
553.114,760.398,500520
553.052,758.359,497593
552.99,756.32,499529
552.927,754.28,499539
552.865,752.24,496545
552.802,750.199,495447
552.74,748.158,495250
552.678,746.116,495601
552.615,744.074,493710
552.553,742.032,493041
552.491,739.989,494105
552.428,737.945,490986
552.366,735.901,489805
552.304,733.857,489712
552.241,731.812,490084
552.179,729.766,489193
552.116,727.721,488612
552.054,725.674,489244
551.992,723.628,487459
551.929,721.58,488384
551.867,719.533,489426
551.805,717.485,487525
551.742,715.436,487744
551.68,713.387,487791
551.617,711.337,486585
551.555,709.287,486618
551.493,707.237,488916
551.43,705.186,486060
551.368,703.135,487983
551.306,701.083,487801
551.243,699.031,486227
551.181,696.978,487035
551.119,694.925,486934
551.056,692.871,485726
550.994,690.817,485447
550.931,688.762,485162
550.869,686.707,483951
550.807,684.651,484122
550.744,682.595,483263
550.682,680.539,482081
550.62,678.482,480951
550.557,676.425,479316
550.495,674.367,479314
550.432,672.308,477316
550.37,670.25,479015
550.308,668.19,476144
550.245,666.131,475578
550.183,664.07,473202
550.121,662.01,473837
550.058,659.948,475417
549.996,657.887,471841
549.933,655.825,470745
549.871,653.762,470440
549.809,651.699,470935
549.746,649.636,470630
549.684,647.572,469381
549.622,645.507,470885
549.559,643.442,470458
549.497,641.377,471139
549.435,639.311,468774
549.372,637.245,469387
549.31,635.178,470318
549.247,633.111,470809
549.185,631.043,470524
549.123,628.975,469642
549.06,626.906,469710
548.998,624.837,469721
548.936,622.768,470528
548.873,620.698,470730
548.811,618.627,468173
548.748,616.556,467856
548.686,614.485,466919
548.624,612.413,464756
548.561,610.34,464536
548.499,608.267,463674
548.437,606.194,462351
548.374,604.12,461048
548.312,602.046,459660
548.249,599.971,458551
548.187,597.896,456719
548.125,595.82,455357
548.062,593.744,453319
548.0,591.667,453845
547.938,589.59,451569
547.875,587.513,449044
547.813,585.434,447287
547.751,583.356,448252
547.688,581.277,447196
547.626,579.197,445446
547.563,577.117,443889
547.501,575.037,445276
547.439,572.956,443124
547.376,570.875,441077
547.314,568.793,441552
547.252,566.71,441228
547.189,564.628,441006
547.127,562.544,440977
547.064,560.461,439911
547.002,558.376,441357
546.94,556.292,440530
546.877,554.206,440303
546.815,552.121,440275
546.753,550.035,440755
546.69,547.948,438475
546.628,545.861,439744
546.565,543.773,438250
546.503,541.685,437221
546.441,539.597,437249
546.378,537.508,436292
546.316,535.418,434401
546.254,533.328,434290
546.191,531.238,432882
546.129,529.147,432211
546.067,527.056,430375
546.004,524.964,427759
545.942,522.871,428143
545.879,520.778,426318
545.817,518.685,425005
545.755,516.591,424797
545.692,514.497,423868
545.63,512.402,422814
545.568,510.307,423006
545.505,508.211,422686
545.443,506.115,424310
545.38,504.019,424457
545.318,501.922,425525
545.256,499.824,427552
545.193,497.726,426022
545.131,495.627,426142
545.069,493.528,425647
545.006,491.429,423952
544.944,489.329,421671
544.881,487.228,419914
544.819,485.127,419312
544.757,483.026,419483
544.694,480.924,419214
544.632,478.821,420097
544.57,476.718,419736
544.507,474.615,419341
544.445,472.511,419054
544.383,470.407,417660
544.32,468.302,417910
544.258,466.197,417139
544.195,464.091,416768
544.133,461.985,415081
544.071,459.878,415429
544.008,457.771,412043
543.946,455.663,412824
543.884,453.555,410309
543.821,451.446,408717
543.759,449.337,407525
543.696,447.227,406606
543.634,445.117,405038
543.572,443.006,404295
543.509,440.895,403243
543.447,438.784,401488
543.385,436.671,402998
543.322,434.559,400439
543.26,432.446,401231
543.198,430.332,401066
543.135,428.218,399702
543.073,426.104,399156
543.01,423.989,400611
542.948,421.873,400757
542.886,419.757,402491
542.823,417.641,401436
542.761,415.524,401989
542.699,413.407,401801
542.636,411.289,401898
542.574,409.17,401529
542.511,407.051,400151
542.449,404.932,401234
542.387,402.812,401557
542.324,400.692,399127
542.262,398.571,399287
542.2,396.45,399043
542.137,394.328,397587
542.075,392.205,397437
542.012,390.083,395515
541.95,387.959,393658
541.888,385.836,391405
541.825,383.711,390092
541.763,381.587,389347
541.701,379.461,388293
541.638,377.336,388931
541.576,375.209,388196
541.514,373.083,387177
541.451,370.955,384843
541.389,368.828,386586
541.326,366.7,385005
541.264,364.571,385673
541.202,362.442,385178
541.139,360.312,384400
541.077,358.182,385513
541.015,356.051,385383
540.952,353.92,383815
540.89,351.789,382804
540.827,349.657,382971
540.765,347.524,381478
540.703,345.391,378118
540.64,343.257,376959
540.578,341.123,375078
540.516,338.989,373427
540.453,336.854,370623
540.391,334.718,366790
540.328,332.582,364555
540.266,330.445,362737
540.204,328.308,359236
540.141,326.171,359093
540.079,324.033,357538
540.017,321.894,357780
539.954,319.755,355495
539.892,317.616,355766
539.83,315.476,357487
539.767,313.335,358558
539.705,311.194,359342
539.642,309.053,360068
539.58,306.911,361788
539.518,304.768,360506
539.455,302.625,358378
539.393,300.482,356989
539.331,298.338,351138
539.268,296.194,347367
539.206,294.049,341740
539.143,291.903,335801
539.081,289.757,329044
539.019,287.611,322107
538.956,285.464,318855
538.894,283.316,316017
538.832,281.169,315113
538.769,279.02,315467
538.707,276.871,316046
538.644,274.722,314702
538.582,272.572,307556
538.52,270.421,291283
538.457,268.271,263632
538.395,266.119,231081
538.333,263.967,196307
538.27,261.815,164908
538.208,259.662,136676
538.146,257.508,115216
538.083,255.355,99469
538.021,253.2,88583
537.958,251.045,81574
537.896,248.89,76306
537.834,246.734,73649
537.771,244.578,71540
537.709,242.421,70036
537.647,240.263,69447
537.584,238.105,68593
537.522,235.947,68134
537.459,233.788,67909
537.397,231.629,67193
537.335,229.469,66855
537.272,227.308,66935
537.21,225.147,66714
537.148,222.986,66524
537.085,220.824,66599
537.023,218.662,66498
536.96,216.499,66271
536.898,214.335,66321
536.836,212.171,66231
536.773,210.007,66318
536.711,207.842,66318
553.364,768.549,518442
553.301,766.512,517966
553.239,764.475,520984
553.177,762.437,517486
553.114,760.398,517047
553.052,758.359,518245
552.99,756.32,518049
552.927,754.28,518966
552.865,752.24,516531
552.802,750.199,513650
552.74,748.158,515207
552.678,746.116,513124
552.615,744.074,512734
552.553,742.032,512741
552.491,739.989,513856
552.428,737.945,511356
552.366,735.901,508707
552.304,733.857,508103
552.241,731.812,508352
552.179,729.766,507133
552.116,727.721,508299
552.054,725.674,507360
551.992,723.628,507426
551.929,721.58,509119
551.867,719.533,507380
551.805,717.485,505326
551.742,715.436,508197
551.68,713.387,506962
551.617,711.337,507203
551.555,709.287,507524
551.493,707.237,506837
551.43,705.186,507161
551.368,703.135,505999
551.306,701.083,505443
551.243,699.031,507640
551.181,696.978,506101
551.119,694.925,505121
551.056,692.871,505274
550.994,690.817,506398
550.931,688.762,504875
550.869,686.707,503508
550.807,684.651,501028
550.744,682.595,503189
550.682,680.539,500473
550.62,678.482,499771
550.557,676.425,498190
550.495,674.367,498267
550.432,672.308,497503
550.37,670.25,496936
550.308,668.19,494882
550.245,666.131,494122
550.183,664.07,492539
550.121,662.01,489988
550.058,659.948,491372
549.996,657.887,490292
549.933,655.825,488340
549.871,653.762,487927
549.809,651.699,487089
549.746,649.636,488934
549.684,647.572,489423
549.622,645.507,488996
549.559,643.442,487684
549.497,641.377,488754
549.435,639.311,487274
549.372,637.245,489197
549.31,635.178,487848
549.247,633.111,489986
549.185,631.043,489031
549.123,628.975,488158
549.06,626.906,488126
548.998,624.837,487802
548.936,622.768,487681
548.873,620.698,486968
548.811,618.627,486996
548.748,616.556,484696
548.686,614.485,483957
548.624,612.413,484741
548.561,610.34,482501
548.499,608.267,482077
548.437,606.194,480509
548.374,604.12,479690
548.312,602.046,478847
548.249,599.971,475402
548.187,597.896,474494
548.125,595.82,473043
548.062,593.744,472263
548.0,591.667,471085
547.938,589.59,467669
547.875,587.513,466683
547.813,585.434,465406
547.751,583.356,464439
547.688,581.277,462862
547.626,579.197,463288
547.563,577.117,461150
547.501,575.037,461322
547.439,572.956,460439
547.376,570.875,458621
547.314,568.793,458533
547.252,566.71,458359
547.189,564.628,458303
547.127,562.544,457194
547.064,560.461,457512
547.002,558.376,456808
546.94,556.292,456591
546.877,554.206,455952
546.815,552.121,456946
546.753,550.035,456283
546.69,547.948,455461
546.628,545.861,455087
546.565,543.773,454464
546.503,541.685,454074
546.441,539.597,453882
546.378,537.508,453810
546.316,535.418,451729
546.254,533.328,450452
546.191,531.238,448699
546.129,529.147,447967
546.067,527.056,447360
546.004,524.964,444281
545.942,522.871,444233
545.879,520.778,441892
545.817,518.685,441433
545.755,516.591,441192
545.692,514.497,440036
545.63,512.402,438965
545.568,510.307,438009
545.505,508.211,438154
545.443,506.115,438697
545.38,504.019,440353
545.318,501.922,441343
545.256,499.824,443056
545.193,497.726,442357
545.131,495.627,440582
545.069,493.528,441298
545.006,491.429,439701
544.944,489.329,438036
544.881,487.228,436478
544.819,485.127,434616
544.757,483.026,434930
544.694,480.924,436467
544.632,478.821,434923
544.57,476.718,435629
544.507,474.615,434142
544.445,472.511,434932
544.383,470.407,435235
544.32,468.302,433771
544.258,466.197,431703
544.195,464.091,431846
544.133,461.985,431481
544.071,459.878,429440
544.008,457.771,427757
543.946,455.663,427739
543.884,453.555,425721
543.821,451.446,424449
543.759,449.337,423027
543.696,447.227,421857
543.634,445.117,420118
543.572,443.006,419381
543.509,440.895,418322
543.447,438.784,418019
543.385,436.671,416580
543.322,434.559,416277
543.26,432.446,415627
543.198,430.332,414594
543.135,428.218,414796
543.073,426.104,415921
543.01,423.989,416475
542.948,421.873,415984
542.886,419.757,414905
542.823,417.641,417307
542.761,415.524,415297
542.699,413.407,417675
542.636,411.289,416043
542.574,409.17,416884
542.511,407.051,416626
542.449,404.932,417625
542.387,402.812,417890
542.324,400.692,415084
542.262,398.571,414747
542.2,396.45,412957
542.137,394.328,412896
542.075,392.205,412218
542.012,390.083,410126
541.95,387.959,409091
541.888,385.836,407494
541.825,383.711,405229
541.763,381.587,404971
541.701,379.461,402909
541.638,377.336,402877
541.576,375.209,401930
541.514,373.083,400153
541.451,370.955,399884
541.389,368.828,401720
541.326,366.7,400103
541.264,364.571,400511
541.202,362.442,400191
541.139,360.312,398110
541.077,358.182,400798
541.015,356.051,398575
540.952,353.92,397941
540.89,351.789,397299
540.827,349.657,396091
540.765,347.524,395893
540.703,345.391,393442
540.64,343.257,390998
540.578,341.123,389742
540.516,338.989,385297
540.453,336.854,384477
540.391,334.718,380161
540.328,332.582,378833
540.266,330.445,375085
540.204,328.308,372493
540.141,326.171,371339
540.079,324.033,369227
540.017,321.894,368772
539.954,319.755,369032
539.892,317.616,370864
539.83,315.476,371386
539.767,313.335,371001
539.705,311.194,371540
539.642,309.053,374356
539.58,306.911,373634
539.518,304.768,374220
539.455,302.625,373446
539.393,300.482,369123
539.331,298.338,366406
539.268,296.194,360694
539.206,294.049,354587
539.143,291.903,347716
539.081,289.757,342188
539.019,287.611,335204
538.956,285.464,331334
538.894,283.316,327120
538.832,281.169,326698
538.769,279.02,327375
538.707,276.871,328558
538.644,274.722,326288
538.582,272.572,318211
538.52,270.421,300885
538.457,268.271,274386
538.395,266.119,239424
538.333,263.967,203734
538.27,261.815,169845
538.208,259.662,141050
538.146,257.508,118455
538.083,255.355,101293
538.021,253.2,90233
537.958,251.045,82391
537.896,248.89,77512
537.834,246.734,74184
537.771,244.578,72300
537.709,242.421,70690
537.647,240.263,69348
537.584,238.105,68977
537.522,235.947,68452
537.459,233.788,68036
537.397,231.629,67836
537.335,229.469,67489
537.272,227.308,67231
537.21,225.147,66951
537.148,222.986,67051
537.085,220.824,66798
537.023,218.662,66722
536.96,216.499,66723
536.898,214.335,66579
536.836,212.171,66478
536.773,210.007,66501
536.711,207.842,66471
553.364,768.549,574151
553.301,766.512,577370
553.239,764.475,575683
553.177,762.437,576062
553.114,760.398,576188
553.052,758.359,574683
552.99,756.32,574751
552.927,754.28,574354
552.865,752.24,571168
552.802,750.199,570901
552.74,748.158,571120
552.678,746.116,568784
552.615,744.074,570239
552.553,742.032,568454
552.491,739.989,567129
552.428,737.945,565201
552.366,735.901,565085
552.304,733.857,564233
552.241,731.812,564168
552.179,729.766,564061
552.116,727.721,563201
552.054,725.674,560823
551.992,723.628,562909
551.929,721.58,562465
551.867,719.533,562327
551.805,717.485,560866
551.742,715.436,562028
551.68,713.387,562029
551.617,711.337,563752
551.555,709.287,563485
551.493,707.237,562424
551.43,705.186,561550
551.368,703.135,561462
551.306,701.083,561768
551.243,699.031,562234
551.181,696.978,561795
551.119,694.925,560860
551.056,692.871,559772
550.994,690.817,558135
550.931,688.762,558649
550.869,686.707,557621
550.807,684.651,557677
550.744,682.595,557040
550.682,680.539,556520
550.62,678.482,555054
550.557,676.425,553460
550.495,674.367,553191
550.432,672.308,551417
550.37,670.25,549523
550.308,668.19,548979
550.245,666.131,549118
550.183,664.07,547625
550.121,662.01,544881
550.058,659.948,545073
549.996,657.887,543619
549.933,655.825,543776
549.871,653.762,543477
549.809,651.699,541356
549.746,649.636,543176
549.684,647.572,541067
549.622,645.507,541394
549.559,643.442,540815
549.497,641.377,542119
549.435,639.311,541774
549.372,637.245,541518
549.31,635.178,539830
549.247,633.111,541795
549.185,631.043,542487
549.123,628.975,540714
549.06,626.906,541319
548.998,624.837,540187
548.936,622.768,542670
548.873,620.698,540877
548.811,618.627,539030
548.748,616.556,537093
548.686,614.485,536581
548.624,612.413,536773
548.561,610.34,534921
548.499,608.267,533568
548.437,606.194,532614
548.374,604.12,531935
548.312,602.046,528314
548.249,599.971,527252
548.187,597.896,526103
548.125,595.82,523826
548.062,593.744,523103
548.0,591.667,520346
547.938,589.59,518274
547.875,587.513,518478
547.813,585.434,516486
547.751,583.356,513288
547.688,581.277,512303
547.626,579.197,510619
547.563,577.117,510062
547.501,575.037,510129
547.439,572.956,509175
547.376,570.875,507057
547.314,568.793,508766
547.252,566.71,506934
547.189,564.628,507203
547.127,562.544,508086
547.064,560.461,508282
547.002,558.376,507512
546.94,556.292,506388
546.877,554.206,506589
546.815,552.121,505120
546.753,550.035,505531
546.69,547.948,505381
546.628,545.861,505484
546.565,543.773,503683
546.503,541.685,503310
546.441,539.597,502802
546.378,537.508,502772
546.316,535.418,500109
546.254,533.328,498255
546.191,531.238,498385
546.129,529.147,496709
546.067,527.056,495028
546.004,524.964,492257
545.942,522.871,491033
545.879,520.778,487693
545.817,518.685,488560
545.755,516.591,487795
545.692,514.497,486573
545.63,512.402,487196
545.568,510.307,486074
545.505,508.211,484268
545.443,506.115,485626
545.38,504.019,485974
545.318,501.922,488038
545.256,499.824,489641
545.193,497.726,489686
545.131,495.627,488831
545.069,493.528,488581
545.006,491.429,485197
544.944,489.329,483745
544.881,487.228,482475
544.819,485.127,483834
544.757,483.026,481180
544.694,480.924,483059
544.632,478.821,481379
544.57,476.718,480778
544.507,474.615,482127
544.445,472.511,480458
544.383,470.407,481071
544.32,468.302,479629
544.258,466.197,479636
544.195,464.091,477730
544.133,461.985,476388
544.071,459.878,477045
544.008,457.771,474399
543.946,455.663,473917
543.884,453.555,470439
543.821,451.446,470146
543.759,449.337,468908
543.696,447.227,467142
543.634,445.117,465254
543.572,443.006,462720
543.509,440.895,462878
543.447,438.784,461632
543.385,436.671,460132
543.322,434.559,461297
543.26,432.446,460434
543.198,430.332,458418
543.135,428.218,459041
543.073,426.104,460160
543.01,423.989,460337
542.948,421.873,458320
542.886,419.757,460577
542.823,417.641,458961
542.761,415.524,462022
542.699,413.407,461519
542.636,411.289,461175
542.574,409.17,462330
542.511,407.051,459749
542.449,404.932,460524
542.387,402.812,461968
542.324,400.692,459843
542.262,398.571,457942
542.2,396.45,458927
542.137,394.328,455914
542.075,392.205,456616
542.012,390.083,453700
541.95,387.959,452076
541.888,385.836,449833
541.825,383.711,448830
541.763,381.587,447352
541.701,379.461,447664
541.638,377.336,445662
541.576,375.209,444909
541.514,373.083,443667
541.451,370.955,443196
541.389,368.828,442814
541.326,366.7,441351
541.264,364.571,442207
541.202,362.442,442061
541.139,360.312,443145
541.077,358.182,441680
541.015,356.051,442279
540.952,353.92,442174
540.89,351.789,440249
540.827,349.657,438636
540.765,347.524,438615
540.703,345.391,434697
540.64,343.257,432673
540.578,341.123,430322
540.516,338.989,427681
540.453,336.854,424793
540.391,334.718,421117
540.328,332.582,419116
540.266,330.445,415390
540.204,328.308,412444
540.141,326.171,411555
540.079,324.033,407843
540.017,321.894,408812
539.954,319.755,409870
539.892,317.616,408622
539.83,315.476,410111
539.767,313.335,412403
539.705,311.194,413845
539.642,309.053,413676
539.58,306.911,414505
539.518,304.768,415068
539.455,302.625,411814
539.393,300.482,408528
539.331,298.338,405468
539.268,296.194,397881
539.206,294.049,391297
539.143,291.903,383646
539.081,289.757,376876
539.019,287.611,369933
538.956,285.464,364870
538.894,283.316,360524
538.832,281.169,359672
538.769,279.02,361484
538.707,276.871,361646
538.644,274.722,360826
538.582,272.572,351375
538.52,270.421,331743
538.457,268.271,300468
538.395,266.119,262438
538.333,263.967,221498
538.27,261.815,183038
538.208,259.662,150805
538.146,257.508,125206
538.083,255.355,106017
538.021,253.2,93720
537.958,251.045,84823
537.896,248.89,79310
537.834,246.734,75747
537.771,244.578,73439
537.709,242.421,71906
537.647,240.263,70740
537.584,238.105,69767
537.522,235.947,69329
537.459,233.788,68883
537.397,231.629,68195
537.335,229.469,68071
537.272,227.308,67734
537.21,225.147,67629
537.148,222.986,67595
537.085,220.824,67448
537.023,218.662,67295
536.96,216.499,67100
536.898,214.335,67353
536.836,212.171,67237
536.773,210.007,67111
536.711,207.842,67244
553.364,768.549,563581
553.301,766.512,564538
553.239,764.475,564496
553.177,762.437,563640
553.114,760.398,564757
553.052,758.359,561237
552.99,756.32,563288
552.927,754.28,563124
552.865,752.24,560499
552.802,750.199,560590
552.74,748.158,559196
552.678,746.116,558267
552.615,744.074,557869
552.553,742.032,557765
552.491,739.989,557249
552.428,737.945,554668
552.366,735.901,552603
552.304,733.857,552512
552.241,731.812,552343
552.179,729.766,553412
552.116,727.721,552534
552.054,725.674,550847
551.992,723.628,551156
551.929,721.58,551132
551.867,719.533,551555
551.805,717.485,550536
551.742,715.436,551127
551.68,713.387,550543
551.617,711.337,551172
551.555,709.287,548862
551.493,707.237,549529
551.43,705.186,549524
551.368,703.135,550348
551.306,701.083,549734
551.243,699.031,551433
551.181,696.978,550402
551.119,694.925,549052
551.056,692.871,548055
550.994,690.817,549259
550.931,688.762,547181
550.869,686.707,546593
550.807,684.651,545666
550.744,682.595,545296
550.682,680.539,544893
550.62,678.482,543996
550.557,676.425,542256
550.495,674.367,540614
550.432,672.308,541473
550.37,670.25,538921
550.308,668.19,537256
550.245,666.131,536535
550.183,664.07,534389
550.121,662.01,533792
550.058,659.948,535345
549.996,657.887,533612
549.933,655.825,531176
549.871,653.762,530964
549.809,651.699,530439
549.746,649.636,528778
549.684,647.572,531014
549.622,645.507,529793
549.559,643.442,530126
549.497,641.377,531789
549.435,639.311,530050
549.372,637.245,530074
549.31,635.178,531750
549.247,633.111,531711
549.185,631.043,530255
549.123,628.975,530479
549.06,626.906,531385
548.998,624.837,529774
548.936,622.768,530053
548.873,620.698,528438
548.811,618.627,529077
548.748,616.556,527665
548.686,614.485,526024
548.624,612.413,524949
548.561,610.34,525338
548.499,608.267,522576
548.437,606.194,520912
548.374,604.12,520889
548.312,602.046,518955
548.249,599.971,517190
548.187,597.896,513960
548.125,595.82,512301
548.062,593.744,511330
548.0,591.667,510039
547.938,589.59,507173
547.875,587.513,506015
547.813,585.434,506793
547.751,583.356,502630
547.688,581.277,502237
547.626,579.197,503117
547.563,577.117,500708
547.501,575.037,500451
547.439,572.956,498240
547.376,570.875,498510
547.314,568.793,498465
547.252,566.71,496742
547.189,564.628,497874
547.127,562.544,497455
547.064,560.461,496489
547.002,558.376,496875
546.94,556.292,501351
546.877,554.206,496162
546.815,552.121,496950
546.753,550.035,496641
546.69,547.948,494685
546.628,545.861,495227
546.565,543.773,492705
546.503,541.685,493236
546.441,539.597,492391
546.378,537.508,491585
546.316,535.418,489946
546.254,533.328,489570
546.191,531.238,487846
546.129,529.147,485651
546.067,527.056,484882
546.004,524.964,483327
545.942,522.871,482584
545.879,520.778,481366
545.817,518.685,476787
545.755,516.591,477476
545.692,514.497,476182
545.63,512.402,474635
545.568,510.307,476006
545.505,508.211,476112
545.443,506.115,475466
545.38,504.019,476544
545.318,501.922,477440
545.256,499.824,479571
545.193,497.726,480139
545.131,495.627,479272
545.069,493.528,478330
545.006,491.429,476400
544.944,489.329,474774
544.881,487.228,473141
544.819,485.127,473283
544.757,483.026,472883
544.694,480.924,474164
544.632,478.821,472429
544.57,476.718,472424
544.507,474.615,472685
544.445,472.511,471511
544.383,470.407,471786
544.32,468.302,470659
544.258,466.197,469008
544.195,464.091,468117
544.133,461.985,467519
544.071,459.878,467664
544.008,457.771,464732
543.946,455.663,463221
543.884,453.555,462396
543.821,451.446,461382
543.759,449.337,459462
543.696,447.227,456954
543.634,445.117,455983
543.572,443.006,453804
543.509,440.895,454584
543.447,438.784,452580
543.385,436.671,452145
543.322,434.559,452611
543.26,432.446,451764
543.198,430.332,448653
543.135,428.218,449295
543.073,426.104,450850
543.01,423.989,450888
542.948,421.873,450746
542.886,419.757,451363
542.823,417.641,450402
542.761,415.524,452069
542.699,413.407,453177
542.636,411.289,451423
542.574,409.17,452178
542.511,407.051,451290
542.449,404.932,452105
542.387,402.812,452203
542.324,400.692,451588
542.262,398.571,448271
542.2,396.45,450179
542.137,394.328,446788
542.075,392.205,447290
542.012,390.083,445318
541.95,387.959,442022
541.888,385.836,441052
541.825,383.711,438361
541.763,381.587,440282
541.701,379.461,438714
541.638,377.336,437466
541.576,375.209,436881
541.514,373.083,434320
541.451,370.955,433964
541.389,368.828,434102
541.326,366.7,435241
541.264,364.571,432622
541.202,362.442,434332
541.139,360.312,433105
541.077,358.182,432400
541.015,356.051,433635
540.952,353.92,433630
540.89,351.789,431543
540.827,349.657,430046
540.765,347.524,430423
540.703,345.391,425968
540.64,343.257,424935
540.578,341.123,421494
540.516,338.989,418753
540.453,336.854,416508
540.391,334.718,412882
540.328,332.582,409821
540.266,330.445,407328
540.204,328.308,405291
540.141,326.171,403000
540.079,324.033,401647
540.017,321.894,401501
539.954,319.755,399338
539.892,317.616,402037
539.83,315.476,401073
539.767,313.335,402361
539.705,311.194,403278
539.642,309.053,405040
539.58,306.911,405788
539.518,304.768,406168
539.455,302.625,401654
539.393,300.482,400572
539.331,298.338,396247
539.268,296.194,389310
539.206,294.049,384686
539.143,291.903,376282
539.081,289.757,370821
539.019,287.611,362215
538.956,285.464,357717
538.894,283.316,354757
538.832,281.169,353450
538.769,279.02,354080
538.707,276.871,355423
538.644,274.722,353124
538.582,272.572,344614
538.52,270.421,325798
538.457,268.271,294880
538.395,266.119,256931
538.333,263.967,218353
538.27,261.815,180593
538.208,259.662,148974
538.146,257.508,123940
538.083,255.355,105550
538.021,253.2,92764
537.958,251.045,84221
537.896,248.89,79470
537.834,246.734,75673
537.771,244.578,73116
537.709,242.421,71468
537.647,240.263,70286
537.584,238.105,69602
537.522,235.947,68945
537.459,233.788,68455
537.397,231.629,68110
537.335,229.469,67952
537.272,227.308,67674
537.21,225.147,67436
537.148,222.986,67316
537.085,220.824,67219
537.023,218.662,67217
536.96,216.499,67161
536.898,214.335,66967
536.836,212.171,66882
536.773,210.007,66924
536.711,207.842,66798
553.364,768.549,541154
553.301,766.512,542713
553.239,764.475,543267
553.177,762.437,542455
553.114,760.398,540637
553.052,758.359,540341
552.99,756.32,542899
552.927,754.28,540714
552.865,752.24,535931
552.802,750.199,538460
552.74,748.158,535687
552.678,746.116,535902
552.615,744.074,536424
552.553,742.032,536112
552.491,739.989,534293
552.428,737.945,532144
552.366,735.901,530435
552.304,733.857,530341
552.241,731.812,531498
552.179,729.766,532107
552.116,727.721,531333
552.054,725.674,529315
551.992,723.628,529082
551.929,721.58,529039
551.867,719.533,530451
551.805,717.485,528871
551.742,715.436,528290
551.68,713.387,528280
551.617,711.337,529428
551.555,709.287,528614
551.493,707.237,528661
551.43,705.186,529569
551.368,703.135,529099
551.306,701.083,528939
551.243,699.031,527797
551.181,696.978,527250
551.119,694.925,527944
551.056,692.871,526970
550.994,690.817,527044
550.931,688.762,526833
550.869,686.707,525517
550.807,684.651,523920
550.744,682.595,522665
550.682,680.539,521933
550.62,678.482,522054
550.557,676.425,521755
550.495,674.367,519728
550.432,672.308,519872
550.37,670.25,516656
550.308,668.19,515533
550.245,666.131,516448
550.183,664.07,513916
550.121,662.01,512625
550.058,659.948,512825
549.996,657.887,511311
549.933,655.825,510415
549.871,653.762,509787
549.809,651.699,511585
549.746,649.636,510998
549.684,647.572,511184
549.622,645.507,509106
549.559,643.442,509555
549.497,641.377,509778
549.435,639.311,508897
549.372,637.245,510505
549.31,635.178,509261
549.247,633.111,509215
549.185,631.043,509586
549.123,628.975,509645
549.06,626.906,509235
548.998,624.837,510582
548.936,622.768,510126
548.873,620.698,508625
548.811,618.627,506895
548.748,616.556,507228
548.686,614.485,505974
548.624,612.413,505300
548.561,610.34,503129
548.499,608.267,502782
548.437,606.194,501275
548.374,604.12,499886
548.312,602.046,498117
548.249,599.971,496981
548.187,597.896,493471
548.125,595.82,492490
548.062,593.744,491618
548.0,591.667,491512
547.938,589.59,487253
547.875,587.513,486990
547.813,585.434,485248
547.751,583.356,484278
547.688,581.277,483292
547.626,579.197,481467
547.563,577.117,480755
547.501,575.037,481487
547.439,572.956,480442
547.376,570.875,477866
547.314,568.793,479365
547.252,566.71,478651
547.189,564.628,478160
547.127,562.544,479028
547.064,560.461,477874
547.002,558.376,477180
546.94,556.292,476764
546.877,554.206,477265
546.815,552.121,477318
546.753,550.035,475877
546.69,547.948,473953
546.628,545.861,476877
546.565,543.773,474617
546.503,541.685,475714
546.441,539.597,472821
546.378,537.508,472563
546.316,535.418,471758
546.254,533.328,470355
546.191,531.238,468965
546.129,529.147,467578
546.067,527.056,465378
546.004,524.964,463450
545.942,522.871,462314
545.879,520.778,462097
545.817,518.685,460335
545.755,516.591,459589
545.692,514.497,457156
545.63,512.402,457119
545.568,510.307,456544
545.505,508.211,457169
545.443,506.115,457077
545.38,504.019,457907
545.318,501.922,460838
545.256,499.824,462702
545.193,497.726,461660
545.131,495.627,460362
545.069,493.528,460565
545.006,491.429,457282
544.944,489.329,456962
544.881,487.228,455194
544.819,485.127,455085
544.757,483.026,453608
544.694,480.924,456021
544.632,478.821,452964
544.57,476.718,452925
544.507,474.615,452430
544.445,472.511,453368
544.383,470.407,453880
544.32,468.302,450894
544.258,466.197,450110
544.195,464.091,451282
544.133,461.985,449831
544.071,459.878,448243
544.008,457.771,447621
543.946,455.663,447632
543.884,453.555,444011
543.821,451.446,443987
543.759,449.337,441200
543.696,447.227,439887
543.634,445.117,438550
543.572,443.006,437666
543.509,440.895,435718
543.447,438.784,435676
543.385,436.671,434021
543.322,434.559,434325
543.26,432.446,433901
543.198,430.332,433100
543.135,428.218,432726
543.073,426.104,432475
543.01,423.989,433714
542.948,421.873,431866
542.886,419.757,434192
542.823,417.641,433696
542.761,415.524,434304
542.699,413.407,434586
542.636,411.289,434693
542.574,409.17,435471
542.511,407.051,434870
542.449,404.932,434384
542.387,402.812,435126
542.324,400.692,433813
542.262,398.571,432850
542.2,396.45,431087
542.137,394.328,430185
542.075,392.205,429621
542.012,390.083,427578
541.95,387.959,425597
541.888,385.836,426362
541.825,383.711,424209
541.763,381.587,421629
541.701,379.461,420695
541.638,377.336,420160
541.576,375.209,417886
541.514,373.083,417879
541.451,370.955,415761
541.389,368.828,418099
541.326,366.7,418213
541.264,364.571,415314
541.202,362.442,417528
541.139,360.312,417306
541.077,358.182,416906
541.015,356.051,415223
540.952,353.92,415284
540.89,351.789,414519
540.827,349.657,413254
540.765,347.524,411894
540.703,345.391,411041
540.64,343.257,407126
540.578,341.123,406460
540.516,338.989,402535
540.453,336.854,400419
540.391,334.718,396483
540.328,332.582,393721
540.266,330.445,391579
540.204,328.308,390320
540.141,326.171,386858
540.079,324.033,385007
540.017,321.894,386060
539.954,319.755,384708
539.892,317.616,385467
539.83,315.476,386529
539.767,313.335,386620
539.705,311.194,389801
539.642,309.053,390899
539.58,306.911,390617
539.518,304.768,390414
539.455,302.625,387133
539.393,300.482,383601
539.331,298.338,380570
539.268,296.194,376523
539.206,294.049,369446
539.143,291.903,362022
539.081,289.757,355206
539.019,287.611,349016
538.956,285.464,343108
538.894,283.316,341239
538.832,281.169,340069
538.769,279.02,341548
538.707,276.871,341669
538.644,274.722,339185
538.582,272.572,330942
538.52,270.421,312509
538.457,268.271,283949
538.395,266.119,248246
538.333,263.967,210423
538.27,261.815,175947
538.208,259.662,145461
538.146,257.508,120687
538.083,255.355,103536
538.021,253.2,91500
537.958,251.045,83287
537.896,248.89,78718
537.834,246.734,74895
537.771,244.578,72532
537.709,242.421,71227
537.647,240.263,70083
537.584,238.105,69502
537.522,235.947,68546
537.459,233.788,68258
537.397,231.629,68031
537.335,229.469,67548
537.272,227.308,67333
537.21,225.147,67396
537.148,222.986,67009
537.085,220.824,67005
537.023,218.662,66969
536.96,216.499,66778
536.898,214.335,66759
536.836,212.171,66890
536.773,210.007,66679
536.711,207.842,66690
536.661,206.11,66601