File: tomke/20240809_Si_on_TiO2/20240809/raw_data/Si_onTiO2_0mA_30mW_30sec_3acc_545nm_bg_new.txt
Wavelength(nm), Raman shift(cm^-1), Intensity(counts)
552.12,727.839,59794
552.088,726.794,59968
552.056,725.749,60162
552.024,724.703,60056
551.993,723.658,59966
551.961,722.612,59952
551.929,721.567,60100
551.897,720.521,60139
551.865,719.475,60046
551.833,718.429,60020
551.801,717.383,60030
551.77,716.336,59989
551.738,715.29,60094
551.706,714.243,60129
551.674,713.197,59915
551.642,712.15,59981
551.61,711.103,59946
551.578,710.056,60007
551.547,709.009,59979
551.515,707.961,59976
551.483,706.914,59953
551.451,705.866,60000
551.419,704.819,60057
551.387,703.771,60038
551.355,702.723,59984
551.324,701.675,59950
551.292,700.627,59994
551.26,699.579,59996
551.228,698.53,59993
551.196,697.482,59995
551.164,696.433,59922
551.132,695.384,59979
551.101,694.336,60074
551.069,693.287,60045
551.037,692.238,60010
551.005,691.188,59971
550.973,690.139,59994
550.941,689.09,59964
550.909,688.04,60042
550.878,686.99,60048
550.846,685.94,59964
550.814,684.89,60101
550.782,683.84,59953
550.75,682.79,60068
550.718,681.74,59979
550.686,680.689,60013
550.655,679.639,59998
550.623,678.588,59961
550.591,677.537,59983
550.559,676.486,59931
550.527,675.435,59927
550.495,674.384,59997
550.463,673.333,60010
550.432,672.282,60037
550.4,671.23,60065
550.368,670.178,60037
550.336,669.127,59982
550.304,668.075,60080
550.272,667.023,59969
550.24,665.97,60037
550.209,664.918,60071
550.177,663.866,59992
550.145,662.813,59983
550.113,661.761,60031
550.081,660.708,60020
550.049,659.655,60082
550.017,658.602,59956
549.986,657.549,60038
549.954,656.496,60006
549.922,655.442,59977
549.89,654.389,60051
549.858,653.335,59972
549.826,652.282,60002
549.794,651.228,60034
549.763,650.174,60012
549.731,649.12,59997
549.699,648.065,59979
549.667,647.011,59993
549.635,645.957,59966
549.603,644.902,59976
549.571,643.847,60027
549.54,642.792,60017
549.508,641.738,59949
549.476,640.682,60013
549.444,639.627,59973
549.412,638.572,60007
549.38,637.517,60008
549.348,636.461,59981
549.317,635.405,60006
549.285,634.349,60013
549.253,633.294,59901
549.221,632.237,59998
549.189,631.181,60001
549.157,630.125,60012
549.125,629.069,59959
549.094,628.012,60013
549.062,626.955,59977
549.03,625.899,60051
548.998,624.842,60055
548.966,623.785,59981
548.934,622.727,60010
548.902,621.67,59973
548.871,620.613,59987
548.839,619.555,59981
548.807,618.498,60012
548.775,617.44,59991
548.743,616.382,59969
548.711,615.324,60015
548.679,614.266,59982
548.648,613.208,59935
548.616,612.149,59922
548.584,611.091,59979
548.552,610.032,59993
548.52,608.973,59944
548.488,607.914,60043
548.456,606.855,59999
548.425,605.796,60044
548.393,604.737,60096
548.361,603.678,60074
548.329,602.618,60035
548.297,601.559,59966
548.265,600.499,59967
548.233,599.439,59930
548.202,598.379,60058
548.17,597.319,60098
548.138,596.259,59983
548.106,595.198,59911
548.074,594.138,60090
548.042,593.077,60065
548.01,592.017,60082
547.979,590.956,60026
547.947,589.895,59982
547.915,588.834,60005
547.883,587.772,60040
547.851,586.711,60067
547.819,585.65,60014
547.787,584.588,59977
547.756,583.526,60017
547.724,582.464,60062
547.692,581.402,59938
547.66,580.34,59974
547.628,579.278,59989
547.596,578.216,60049
547.564,577.153,60037
547.533,576.091,59926
547.501,575.028,60019
547.469,573.965,60027
547.437,572.902,59999
547.405,571.839,59958
547.373,570.776,60079
547.341,569.713,60002
547.31,568.649,60066
547.278,567.586,59962
547.246,566.522,59992
547.214,565.458,60041
547.182,564.394,60033
547.15,563.33,59984
547.118,562.266,60041
547.087,561.202,60086
547.055,560.137,59995
547.023,559.073,59999
546.991,558.008,60018
546.959,556.943,59978
546.927,555.878,60030
546.895,554.813,60071
546.864,553.748,60055
546.832,552.683,59990
546.8,551.617,60029
546.768,550.552,60006
546.736,549.486,60022
546.704,548.42,60025
546.672,547.355,59980
546.641,546.288,59954
546.609,545.222,59969
546.577,544.156,59997
546.545,543.09,60035
546.513,542.023,60007
546.481,540.956,59975
546.449,539.89,59980
546.418,538.823,60019
546.386,537.756,59962
546.354,536.688,60032
546.322,535.621,59948
546.29,534.554,62479
546.258,533.486,59956
546.226,532.419,59998
546.195,531.351,60078
546.163,530.283,60011
546.131,529.215,60096
546.099,528.147,60006
546.067,527.078,60065
546.035,526.01,59964
546.003,524.941,59999
545.972,523.873,60034
545.94,522.804,59963
545.908,521.735,59957
545.876,520.666,60034
545.844,519.597,60008
545.812,518.528,60130
545.78,517.458,60165
545.749,516.389,59989
545.717,515.319,59993
545.685,514.249,60047
545.653,513.179,60024
545.621,512.109,60059
545.589,511.039,59965
545.557,509.969,60055
545.526,508.898,59937
545.494,507.828,60004
545.462,506.757,59996
545.43,505.686,60082
545.398,504.616,60071
545.366,503.545,59979
545.334,502.473,60056
545.303,501.402,59905
545.271,500.331,59955
545.239,499.259,59984
545.207,498.187,59988
545.175,497.116,59969
545.143,496.044,60023
545.111,494.972,59987
545.08,493.9,60083
545.048,492.827,60050
545.016,491.755,59992
544.984,490.682,60011
544.952,489.61,59969
544.92,488.537,60047
544.889,487.464,60033
544.857,486.391,59971
544.825,485.318,59976
544.793,484.245,59968
544.761,483.171,60057
544.729,482.098,60073
544.697,481.024,60027
544.666,479.95,59995
544.634,478.876,59969
544.602,477.802,59944
544.57,476.728,60050
544.538,475.654,59985
544.506,474.579,60114
544.474,473.505,59997
544.443,472.43,60018
544.411,471.355,60023
544.379,470.28,60084
544.347,469.205,60036
544.315,468.13,59910
544.283,467.055,60045
544.251,465.979,60048
544.22,464.904,60002
544.188,463.828,60057
544.156,462.752,60017
544.124,461.676,59976
544.092,460.6,59984
544.06,459.524,59906
544.028,458.448,59965
543.997,457.371,59963
543.965,456.295,59910
543.933,455.218,60037
543.901,454.141,60009
543.869,453.064,60013
543.837,451.987,60040
543.805,450.91,60012
543.774,449.833,60033
543.742,448.755,60023
543.71,447.678,60059
543.678,446.6,59999
543.646,445.522,60058
543.614,444.444,60102
543.582,443.366,60116
543.551,442.288,60022
543.519,441.21,60031
543.487,440.131,59968
543.455,439.053,60019
543.423,437.974,59970
543.391,436.895,60029
543.359,435.816,59989
543.328,434.737,59998
543.296,433.658,59976
543.264,432.579,60015
543.232,431.499,59976
543.2,430.42,59985
543.168,429.34,60021
543.136,428.26,59978
543.105,427.18,59984
543.073,426.1,59924
543.041,425.02,59919
543.009,423.939,59995
542.977,422.859,60047
542.945,421.778,60017
542.913,420.698,60025
542.882,419.617,59998
542.85,418.536,60067
542.818,417.455,59982
542.786,416.373,59920
542.754,415.292,60054
542.722,414.21,59994
542.69,413.129,60039
542.659,412.047,59988
542.627,410.965,59958
542.595,409.883,59931
542.563,408.801,59979
542.531,407.719,60016
542.499,406.636,59928
542.467,405.554,60125
542.436,404.471,60059
542.404,403.389,59996
542.372,402.306,59995
542.34,401.223,60034
542.308,400.139,60015
542.276,399.056,60056
542.244,397.973,59963
542.213,396.889,59976
542.181,395.806,59952
542.149,394.722,60015
542.117,393.638,60033
542.085,392.554,59908
542.053,391.47,60008
542.021,390.385,59938
541.99,389.301,59922
541.958,388.216,60016
541.926,387.132,59987
541.894,386.047,59944
541.862,384.962,59987
541.83,383.877,59975
541.798,382.792,60065
541.767,381.707,60054
541.735,380.621,59892
541.703,379.535,60028
541.671,378.45,59880
541.639,377.364,59954
541.607,376.278,60015
541.575,375.192,60067
541.544,374.106,60062
541.512,373.019,60056
541.48,371.933,59939
541.448,370.846,59999
541.416,369.76,59960
541.384,368.673,60028
541.352,367.586,59998
541.321,366.499,60007
541.289,365.411,59983
541.257,364.324,60000
541.225,363.237,59961
541.193,362.149,60049
541.161,361.061,60016
541.129,359.973,60015
541.098,358.885,59926
541.066,357.797,59963
541.034,356.709,59992
541.002,355.621,60071
540.97,354.532,59927
540.938,353.443,59930
540.906,352.355,59948
540.875,351.266,60046
540.843,350.177,59973
540.811,349.088,59999
540.779,347.998,60096
540.747,346.909,59978
540.715,345.819,60020
540.683,344.73,60029
540.652,343.64,60100
540.62,342.55,60031
540.588,341.46,60094
540.556,340.37,60070
540.524,339.28,60028
540.492,338.189,59916
540.46,337.099,60062
540.429,336.008,60072
540.397,334.917,60001
540.365,333.826,59925
540.333,332.735,60025
540.301,331.644,60020
540.269,330.552,60008
540.237,329.461,59981
540.206,328.369,59977
540.174,327.278,60003
540.142,326.186,60007
540.11,325.094,59977
540.078,324.002,60013
540.046,322.909,59984
540.014,321.817,59972
539.983,320.725,60049
539.951,319.632,59964
539.919,318.539,59989
539.887,317.446,60011
539.855,316.353,59958
539.823,315.26,60004
539.791,314.167,59995
539.76,313.074,60073
539.728,311.98,59924
539.696,310.886,59973
539.664,309.793,59991
539.632,308.699,60058
539.6,307.605,59964
539.568,306.51,59951
539.537,305.416,60001
539.505,304.322,60033
539.473,303.227,60045
539.441,302.132,60023
539.409,301.038,60039
539.377,299.943,60015
539.345,298.848,60006
539.314,297.752,59921
539.282,296.657,60037
539.25,295.562,59892
539.218,294.466,59986
539.186,293.37,60048
539.154,292.274,60052
539.122,291.178,60042
539.091,290.082,60019
539.059,288.986,60001
539.027,287.89,60007
538.995,286.793,59974
538.963,285.697,59959
538.931,284.6,60029
538.899,283.503,60041
538.868,282.406,59902
538.836,281.309,60043
538.804,280.211,59955
538.772,279.114,60018
538.74,278.016,59985
538.708,276.919,59917
538.676,275.821,60019
538.645,274.723,59958
538.613,273.625,59992
538.581,272.527,59989
538.549,271.429,59978
538.517,270.33,59948
538.485,269.231,60051
538.453,268.133,59998
538.422,267.034,60040
538.39,265.935,59923
538.358,264.836,59990
538.326,263.737,59996
538.294,262.637,60042
538.262,261.538,59982
538.23,260.438,60050
538.199,259.338,60010
538.167,258.239,59984
538.135,257.139,60000
538.103,256.038,59953
538.071,254.938,59987
538.039,253.838,60054
538.007,252.737,60005
537.976,251.637,59887
537.944,250.536,59947
537.912,249.435,59959
552.109,727.491,59821
552.078,726.446,60101
552.046,725.4,60062
552.014,724.355,59962
551.982,723.309,59988
551.95,722.264,60030
551.918,721.218,60115
551.886,720.172,60030
551.855,719.126,60066
551.823,718.08,60023
551.791,717.034,60014
551.759,715.987,60016
551.727,714.941,59978
551.695,713.894,60056
551.663,712.848,60054
551.632,711.801,59955
551.6,710.754,59971
551.568,709.707,60086
551.536,708.66,60041
551.504,707.612,60014
551.472,706.565,60045
551.44,705.517,59965
551.409,704.47,60015
551.377,703.422,60026
551.345,702.374,60007
551.313,701.326,60031
551.281,700.278,59975
551.249,699.229,60030
551.217,698.181,59949
551.186,697.132,59905
551.154,696.084,59944
551.122,695.035,60118
551.09,693.986,59960
551.058,692.937,59995
551.026,691.888,60040
550.994,690.839,59944
550.963,689.789,59976
550.931,688.74,59992
550.899,687.69,60054
550.867,686.64,60005
550.835,685.59,59964
550.803,684.54,59934
550.771,683.49,59840
550.74,682.44,59954
550.708,681.39,60040
550.676,680.339,59988
550.644,679.289,59968
550.612,678.238,60058
550.58,677.187,60015
550.548,676.136,60018
550.517,675.085,60091
550.485,674.034,60005
550.453,672.982,60036
550.421,671.931,59963
550.389,670.879,60008
550.357,669.828,59958
550.325,668.776,59935
550.294,667.724,60065
550.262,666.672,59988
550.23,665.62,59929
550.198,664.567,60031
550.166,663.515,60021
550.134,662.462,60040
550.102,661.41,59975
550.071,660.357,60001
550.039,659.304,59934
550.007,658.251,60079
549.975,657.198,60018
549.943,656.145,59992
549.911,655.091,60033
549.879,654.038,59979
549.848,652.984,59990
549.816,651.93,59973
549.784,650.876,59989
549.752,649.822,59923
549.72,648.768,59974
549.688,647.714,59989
549.656,646.66,60033
549.625,645.605,60040
549.593,644.55,59970
549.561,643.496,59996
549.529,642.441,60036
549.497,641.386,59959
549.465,640.331,59930
549.433,639.275,59968
549.402,638.22,59990
549.37,637.165,60031
549.338,636.109,59998
549.306,635.053,59957
549.274,633.997,60000
549.242,632.942,60073
549.21,631.885,60028
549.179,630.829,60076
549.147,629.773,60019
549.115,628.716,59994
549.083,627.66,60035
549.051,626.603,60004
549.019,625.546,60037
548.987,624.489,60022
548.956,623.432,60001
548.924,622.375,60026
548.892,621.318,60001
548.86,620.26,60026
548.828,619.203,59954
548.796,618.145,59943
548.764,617.087,60015
548.733,616.029,60002
548.701,614.971,59932
548.669,613.913,59975
548.637,612.855,59907
548.605,611.796,59963
548.573,610.738,60044
548.541,609.679,60020
548.51,608.62,59981
548.478,607.561,59963
548.446,606.502,60067
548.414,605.443,60086
548.382,604.384,60040
548.35,603.325,59979
548.318,602.265,59988
548.287,601.205,59961
548.255,600.146,60013
548.223,599.086,60014
548.191,598.026,60021
548.159,596.965,60051
548.127,595.905,59963
548.095,594.845,60054
548.064,593.784,60017
548.032,592.724,59984
548,591.663,59981
547.968,590.602,60006
547.936,589.541,59982
547.904,588.48,59958
547.872,587.419,60006
547.841,586.357,60007
547.809,585.296,59994
547.777,584.234,59987
547.745,583.172,59998
547.713,582.11,59996
547.681,581.048,59946
547.649,579.986,59992
547.618,578.924,59858
547.586,577.862,59886
547.554,576.799,59964
547.522,575.737,59997
547.49,574.674,59940
547.458,573.611,60032
547.426,572.548,60030
547.395,571.485,60029
547.363,570.422,60011
547.331,569.358,60067
547.299,568.295,60007
547.267,567.231,60052
547.235,566.168,60079
547.203,565.104,59986
547.172,564.04,60002
547.14,562.976,60011
547.108,561.911,60019
547.076,560.847,59884
547.044,559.783,59968
547.012,558.718,59973
546.98,557.653,60018
546.949,556.588,60027
546.917,555.523,59919
546.885,554.458,60056
546.853,553.393,59974
546.821,552.328,59948
546.789,551.262,59970
546.757,550.197,59909
546.726,549.131,59978
546.694,548.065,60000
546.662,546.999,59936
546.63,545.933,59983
546.598,544.867,59995
546.566,543.801,59962
546.534,542.734,59994
546.503,541.668,59961
546.471,540.601,59963
546.439,539.534,59994
546.407,538.467,59948
546.375,537.4,59944
546.343,536.333,60017
546.311,535.265,60081
546.28,534.198,59979
546.248,533.13,59977
546.216,532.063,59966
546.184,530.995,59921
546.152,529.927,59974
546.12,528.859,60008
546.088,527.791,59981
546.057,526.722,60044
546.025,525.654,60023
545.993,524.585,60057
545.961,523.517,59984
545.929,522.448,60021
545.897,521.379,59962
545.865,520.31,60048
545.834,519.24,60045
545.802,518.171,60089
545.77,517.102,60031
545.738,516.032,60018
545.706,514.962,60036
545.674,513.893,60048
545.642,512.823,60060
545.611,511.753,59928
545.579,510.682,60056
545.547,509.612,60034
545.515,508.542,60012
545.483,507.471,60012
545.451,506.4,59953
545.419,505.33,59959
545.388,504.259,60009
545.356,503.187,59969
545.324,502.116,59926
545.292,501.045,60018
545.26,499.974,59994
545.228,498.902,59933
545.196,497.83,60028
545.165,496.758,60054
545.133,495.686,59999
545.101,494.614,59994
545.069,493.542,60004
545.037,492.47,59985
545.005,491.397,60021
544.973,490.325,60027
544.942,489.252,59962
544.91,488.179,59998
544.878,487.106,60038
544.846,486.033,59965
544.814,484.96,59947
544.782,483.887,60013
544.75,482.813,59996
544.719,481.74,60011
544.687,480.666,59947
544.655,479.592,60069
544.623,478.518,59999
544.591,477.444,59975
544.559,476.37,60002
544.527,475.296,59954
544.496,474.221,60100
544.464,473.147,60139
544.432,472.072,60040
544.4,470.997,59929
544.368,469.922,60039
544.336,468.847,60003
544.304,467.772,60073
544.273,466.696,60008
544.241,465.621,59983
544.209,464.545,59980
544.177,463.47,60071
544.145,462.394,59968
544.113,461.318,60035
544.081,460.242,59930
544.05,459.165,59926
544.018,458.089,59927
543.986,457.013,59909
543.954,455.936,59980
543.922,454.859,60020
543.89,453.782,59940
543.858,452.705,60036
543.827,451.628,59991
543.795,450.551,59938
543.763,449.474,60015
543.731,448.396,60016
543.699,447.319,60036
543.667,446.241,59955
543.635,445.163,59979
543.604,444.085,60066
543.572,443.007,60021
543.54,441.929,59925
543.508,440.85,60047
543.476,439.772,59970
543.444,438.693,59987
543.412,437.614,59961
543.381,436.536,59987
543.349,435.457,60013
543.317,434.377,59982
543.285,433.298,60017
543.253,432.219,60002
543.221,431.139,60075
543.189,430.06,59955
543.158,428.98,60007
543.126,427.9,59999
543.094,426.82,59961
543.062,425.74,59957
543.03,424.66,60091
542.998,423.579,60077
542.966,422.499,59957
542.935,421.418,59980
542.903,420.337,59952
542.871,419.256,60025
542.839,418.175,60033
542.807,417.094,60025
542.775,416.013,60052
542.743,414.931,60010
542.712,413.85,60033
542.68,412.768,60029
542.648,411.686,59996
542.616,410.605,60037
542.584,409.523,59968
542.552,408.44,60031
542.52,407.358,60026
542.489,406.276,60015
542.457,405.193,59985
542.425,404.11,60036
542.393,403.028,60031
542.361,401.945,59948
542.329,400.862,59933
542.297,399.778,60011
542.266,398.695,59971
542.234,397.612,60005
542.202,396.528,60046
542.17,395.444,59986
542.138,394.361,60007
542.106,393.277,59979
542.074,392.193,59953
542.043,391.108,60005
542.011,390.024,60037
541.979,388.94,60039
541.947,387.855,59983
541.915,386.77,60062
541.883,385.685,59999
541.851,384.6,60020
541.82,383.515,60068
541.788,382.43,60035
541.756,381.345,59973
541.724,380.259,59933
541.692,379.174,60000
541.66,378.088,59933
541.628,377.002,59937
541.597,375.916,60007
541.565,374.83,59963
541.533,373.744,60013
541.501,372.657,59986
541.469,371.571,59971
541.437,370.484,59956
541.405,369.397,59997
541.374,368.31,59957
541.342,367.223,59993
541.31,366.136,60034
541.278,365.049,59878
541.246,363.962,59916
541.214,362.874,60028
541.182,361.786,60097
541.151,360.699,59985
541.119,359.611,60013
541.087,358.523,59979
541.055,357.435,59904
541.023,356.346,59965
540.991,355.258,60021
540.959,354.169,59896
540.928,353.081,60053
540.896,351.992,59988
540.864,350.903,59993
540.832,349.814,59978
540.8,348.725,59956
540.768,347.635,59985
540.736,346.546,60001
540.705,345.456,59976
540.673,344.367,60008
540.641,343.277,60028
540.609,342.187,59898
540.577,341.097,59970
540.545,340.006,59975
540.513,338.916,60021
540.482,337.826,59992
540.45,336.735,59914
540.418,335.644,60024
540.386,334.553,59935
540.354,333.462,60041
540.322,332.371,60004
540.29,331.28,59962
540.259,330.189,59994
540.227,329.097,60041
540.195,328.005,59953
540.163,326.914,60002
540.131,325.822,60028
540.099,324.73,60021
540.067,323.638,59991
540.036,322.545,59958
540.004,321.453,59989
539.972,320.36,60062
539.94,319.268,60057
539.908,318.175,59944
539.876,317.082,60077
539.844,315.989,60050
539.813,314.896,60028
539.781,313.802,59977
539.749,312.709,59952
539.717,311.615,59914
539.685,310.522,59972
539.653,309.428,60002
539.621,308.334,59998
539.59,307.24,59997
539.558,306.146,59999
539.526,305.051,60043
539.494,303.957,60023
539.462,302.862,60007
539.43,301.767,60016
539.398,300.673,60059
539.367,299.578,59998
539.335,298.483,60005
539.303,297.387,60047
539.271,296.292,59962
539.239,295.196,59966
539.207,294.101,59996
539.175,293.005,59999
539.144,291.909,59922
539.112,290.813,60033
539.08,289.717,59960
539.048,288.621,60055
539.016,287.524,60046
538.984,286.428,59979
538.952,285.331,59995
538.921,284.234,60001
538.889,283.137,59978
538.857,282.04,59972
538.825,280.943,59985
538.793,279.846,60062
538.761,278.748,59960
538.729,277.651,59906
538.698,276.553,60043
538.666,275.455,59930
538.634,274.357,60026
538.602,273.259,59994
538.57,272.161,59953
538.538,271.062,59953
538.506,269.964,59983
538.475,268.865,60067
538.443,267.766,60002
538.411,266.668,59990
538.379,265.569,59994
538.347,264.469,60048
538.315,263.37,60078
538.283,262.271,60004
538.252,261.171,60049
538.22,260.072,59871
538.188,258.972,60019
538.156,257.872,59944
538.124,256.772,60045
538.092,255.672,59979
538.06,254.571,60008
538.029,253.471,59988
537.997,252.37,60003
537.965,251.27,60033
537.933,250.169,59993
537.901,249.068,59960
552.099,727.142,59973
552.067,726.097,60079
552.035,725.052,59968
552.003,724.006,59995
551.971,722.961,59967
551.94,721.915,60025
551.908,720.869,60013
551.876,719.824,59976
551.844,718.778,60118
551.812,717.731,60072
551.78,716.685,60020
551.748,715.639,60006
551.717,714.592,59972
551.685,713.546,60048
551.653,712.499,59921
551.621,711.452,59972
551.589,710.405,59956
551.557,709.358,59962
551.525,708.31,60066
551.494,707.263,60012
551.462,706.216,60022
551.43,705.168,59924
551.398,704.12,59960
551.366,703.072,59965
551.334,702.024,59967
551.302,700.976,59969
551.271,699.928,59947
551.239,698.88,60039
551.207,697.831,59981
551.175,696.783,59945
551.143,695.734,59944
551.111,694.685,59922
551.079,693.636,59989
551.048,692.587,60027
551.016,691.538,60010
550.984,690.489,59980
550.952,689.439,60003
550.92,688.39,59944
550.888,687.34,59969
550.856,686.29,60010
550.825,685.24,60052
550.793,684.19,59955
550.761,683.14,59918
550.729,682.09,59917
550.697,681.04,60011
550.665,679.989,59993
550.633,678.938,60003
550.602,677.888,60023
550.57,676.837,59932
550.538,675.786,60021
550.506,674.735,59989
550.474,673.683,60035
550.442,672.632,59994
550.41,671.58,59960
550.379,670.529,59895
550.347,669.477,60023
550.315,668.425,60065
550.283,667.373,59998
550.251,666.321,59973
550.219,665.269,60026
550.187,664.217,60101
550.156,663.164,60005
550.124,662.112,60000
550.092,661.059,59918
550.06,660.006,60066
550.028,658.953,59956
549.996,657.9,60020
549.964,656.847,60040
549.933,655.793,60027
549.901,654.74,60006
549.869,653.686,59972
549.837,652.633,59937
549.805,651.579,59953
549.773,650.525,59907
549.741,649.471,59971
549.71,648.417,59985
549.678,647.363,60001
549.646,646.308,60036
549.614,645.254,60021
549.582,644.199,59946
549.55,643.144,60013
549.518,642.089,59996
549.487,641.034,60068
549.455,639.979,60030
549.423,638.924,60013
549.391,637.868,59959
549.359,636.813,60061
549.327,635.757,60022
549.295,634.701,60078
549.264,633.646,59932
549.232,632.589,59973
549.2,631.533,60062
549.168,630.477,60015
549.136,629.421,59911
549.104,628.364,59908
549.072,627.308,59929
549.041,626.251,59961
549.009,625.194,59959
548.977,624.137,60022
548.945,623.08,59926
548.913,622.023,59962
548.881,620.965,60053
548.849,619.908,60001
548.818,618.85,59942
548.786,617.792,59988
548.754,616.735,60015
548.722,615.677,59932
548.69,614.619,59948
548.658,613.56,59976
548.626,612.502,59986
548.595,611.444,60061
548.563,610.385,59953
548.531,609.326,60035
548.499,608.267,63634
548.467,607.208,60028
548.435,606.149,60024
548.403,605.09,59999
548.372,604.031,59957
548.34,602.971,60009
548.308,601.912,59999
548.276,600.852,60013
548.244,599.792,60028
548.212,598.732,60124
548.18,597.672,60052
548.149,596.612,60007
548.117,595.552,59952
548.085,594.491,60010
548.053,593.431,59952
548.021,592.37,59993
547.989,591.309,60044
547.957,590.248,59988
547.926,589.187,59935
547.894,588.126,60024
547.862,587.065,60018
547.83,586.003,60010
547.798,584.942,60019
547.766,583.88,59949
547.734,582.818,59990
547.703,581.756,59907
547.671,580.694,60034
547.639,579.632,59997
547.607,578.57,59902
547.575,577.508,59949
547.543,576.445,60037
547.511,575.382,60009
547.48,574.32,60059
547.448,573.257,60026
547.416,572.194,60075
547.384,571.131,59970
547.352,570.067,59994
547.32,569.004,59897
547.288,567.94,59982
547.257,566.877,59989
547.225,565.813,60006
547.193,564.749,59966
547.161,563.685,59997
547.129,562.621,59992
547.097,561.557,59992
547.065,560.492,60029
547.034,559.428,60068
547.002,558.363,59903
546.97,557.298,60011
546.938,556.233,59896
546.906,555.168,59975
546.874,554.103,59936
546.842,553.038,60039
546.811,551.973,60058
546.779,550.907,59972
546.747,549.841,59987
546.715,548.776,59996
546.683,547.71,59957
546.651,546.644,59973
546.619,545.578,59953
546.588,544.511,59972
546.556,543.445,59978
546.524,542.379,59947
546.492,541.312,60022
546.46,540.245,59936
546.428,539.178,60036
546.396,538.111,59943
546.365,537.044,59984
546.333,535.977,59969
546.301,534.91,59970
546.269,533.842,59900
546.237,532.774,60007
546.205,531.707,60031
546.173,530.639,60052
546.142,529.571,60020
546.11,528.503,59938
546.078,527.434,60040
546.046,526.366,59992
546.014,525.298,59953
545.982,524.229,59875
545.95,523.16,59988
545.919,522.091,59971
545.887,521.022,60005
545.855,519.953,60091
545.823,518.884,60034
545.791,517.815,60148
545.759,516.745,60109
545.727,515.676,60024
545.696,514.606,59986
545.664,513.536,60028
545.632,512.466,60018
545.6,511.396,59941
545.568,510.326,60047
545.536,509.255,59990
545.504,508.185,59966
545.473,507.114,60065
545.441,506.043,59993
545.409,504.973,60016
545.377,503.902,60009
545.345,502.83,60063
545.313,501.759,59954
545.281,500.688,59985
545.25,499.616,60048
545.218,498.545,59939
545.186,497.473,59999
545.154,496.401,60065
545.122,495.329,60047
545.09,494.257,60032
545.058,493.185,59974
545.027,492.112,59965
544.995,491.04,59946
544.963,489.967,60026
544.931,488.895,59967
544.899,487.822,59962
544.867,486.749,59982
544.835,485.676,59915
544.804,484.602,59926
544.772,483.529,60007
544.74,482.455,59979
544.708,481.382,60019
544.676,480.308,60003
544.644,479.234,59962
544.612,478.16,60080
544.581,477.086,59959
544.549,476.012,59955
544.517,474.937,60036
544.485,473.863,60018
544.453,472.788,60013
544.421,471.714,60047
544.389,470.639,59994
544.358,469.564,59988
544.326,468.489,59988
544.294,467.413,60010
544.262,466.338,59957
544.23,465.262,59936
544.198,464.187,59930
544.166,463.111,60004
544.135,462.035,60041
544.103,460.959,59987
544.071,459.883,59930
544.039,458.807,59957
544.007,457.73,59963
543.975,456.654,59993
543.943,455.577,60034
543.912,454.5,60052
543.88,453.423,59991
543.848,452.346,59961
543.816,451.269,59982
543.784,450.192,59989
543.752,449.115,59987
543.72,448.037,59960
543.689,446.959,59955
543.657,445.882,59987
543.625,444.804,59990
543.593,443.726,59997
543.561,442.648,60005
543.529,441.569,59980
543.497,440.491,60034
543.466,439.412,60023
543.434,438.334,60028
543.402,437.255,60081
543.37,436.176,60028
543.338,435.097,60027
543.306,434.018,59953
543.274,432.938,59980
543.243,431.859,60008
543.211,430.779,59945
543.179,429.7,59990
543.147,428.62,59977
543.115,427.54,59961
543.083,426.46,60034
543.051,425.38,60008
543.02,424.299,59948
542.988,423.219,60034
542.956,422.138,59996
542.924,421.058,60041
542.892,419.977,59960
542.86,418.896,59961
542.828,417.815,60050
542.797,416.734,59991
542.765,415.652,60027
542.733,414.571,59951
542.701,413.489,59989
542.669,412.408,59955
542.637,411.326,60060
542.605,410.244,59989
542.574,409.162,60031
542.542,408.08,60067
542.51,406.997,60053
542.478,405.915,59963
542.446,404.832,60043
542.414,403.749,60017
542.382,402.667,60018
542.351,401.584,59955
542.319,400.501,59963
542.287,399.417,59996
542.255,398.334,59944
542.223,397.25,59991
542.191,396.167,59975
542.159,395.083,59970
542.128,393.999,59967
542.096,392.915,59898
542.064,391.831,59979
542.032,390.747,59981
542,389.663,59989
541.968,388.578,59997
541.936,387.493,59966
541.905,386.409,59980
541.873,385.324,59994
541.841,384.239,59994
541.809,383.154,59929
541.777,382.068,59932
541.745,380.983,59897
541.713,379.897,60025
541.682,378.812,59993
541.65,377.726,60001
541.618,376.64,60008
541.586,375.554,59981
541.554,374.468,60028
541.522,373.382,59985
541.49,372.295,59918
541.459,371.209,60011
541.427,370.122,59897
541.395,369.035,60041
541.363,367.948,60030
541.331,366.861,59975
541.299,365.774,59971
541.267,364.687,59994
541.236,363.599,59954
541.204,362.512,59922
541.172,361.424,60031
541.14,360.336,59989
541.108,359.248,59928
541.076,358.16,59991
541.044,357.072,60006
541.013,355.983,60056
540.981,354.895,59993
540.949,353.806,60019
540.917,352.718,60063
540.885,351.629,59961
540.853,350.54,60033
540.821,349.451,59981
540.79,348.361,60014
540.758,347.272,59928
540.726,346.183,59935
540.694,345.093,59983
540.662,344.003,60003
540.63,342.913,59935
540.598,341.823,59927
540.567,340.733,59946
540.535,339.643,59974
540.503,338.553,59972
540.471,337.462,59984
540.439,336.371,60042
540.407,335.281,59993
540.375,334.19,60027
540.344,333.099,59969
540.312,332.008,60013
540.28,330.916,59944
540.248,329.825,59979
540.216,328.733,59972
540.184,327.642,60001
540.152,326.55,59982
540.121,325.458,60034
540.089,324.366,60000
540.057,323.274,59992
540.025,322.181,59969
539.993,321.089,59942
539.961,319.996,59950
539.929,318.903,60054
539.898,317.811,59972
539.866,316.718,59935
539.834,315.625,60026
539.802,314.531,59971
539.77,313.438,59941
539.738,312.345,59968
539.706,311.251,60034
539.675,310.157,59948
539.643,309.063,60009
539.611,307.969,59996
539.579,306.875,59964
539.547,305.781,60044
539.515,304.686,60032
539.483,303.592,59885
539.452,302.497,60009
539.42,301.403,60006
539.388,300.308,59993
539.356,299.213,59938
539.324,298.117,60019
539.292,297.022,59986
539.26,295.927,59986
539.229,294.831,59980
539.197,293.735,59967
539.165,292.64,60029
539.133,291.544,60035
539.101,290.448,59916
539.069,289.351,59946
539.037,288.255,59967
539.006,287.159,59910
538.974,286.062,60025
538.942,284.965,59988
538.91,283.869,59940
538.878,282.772,60000
538.846,281.674,60030
538.814,280.577,60021
538.783,279.48,59918
538.751,278.382,59982
538.719,277.285,59991
538.687,276.187,59973
538.655,275.089,59966
538.623,273.991,59949
538.591,272.893,60050
538.56,271.795,60001
538.528,270.696,59960
538.496,269.598,59961
538.464,268.499,59987
538.432,267.4,60035
538.4,266.301,60005
538.368,265.202,60001
538.337,264.103,60027
538.305,263.004,60005
538.273,261.904,60029
538.241,260.805,60033
538.209,259.705,60068
538.177,258.605,60062
538.145,257.505,59982
538.114,256.405,59946
538.082,255.305,60002
538.05,254.205,59941
538.018,253.104,60007
537.986,252.003,59920
537.954,250.903,59976
537.922,249.802,59965
537.901,249.068,59944