File: tomke/20240809_Si_on_TiO2/20240809/raw_data/Si_onTiO2_0mA_30mW_30sec_3acc_517nm_bg.txt
Wavelength(nm), Raman shift(cm^-1), Intensity(counts)
525.364,-194.586,59691
525.326,-195.942,59964
525.289,-197.298,60126
525.252,-198.654,59979
525.214,-200.011,60069
525.177,-201.367,60044
525.139,-202.724,59983
525.102,-204.081,59931
525.064,-205.439,60027
525.027,-206.796,60005
524.99,-208.154,59943
524.952,-209.512,59993
524.915,-210.87,59993
524.877,-212.228,60017
524.84,-213.586,59960
524.802,-214.945,60025
524.765,-216.304,59938
524.728,-217.663,60034
524.69,-219.022,59993
524.653,-220.381,60018
524.615,-221.741,60005
524.578,-223.101,60024
524.541,-224.461,59964
524.503,-225.821,60075
524.466,-227.181,59907
524.428,-228.542,60016
524.391,-229.903,59981
524.353,-231.264,59914
524.316,-232.625,59981
524.279,-233.986,60033
524.241,-235.348,60088
524.204,-236.71,59847
524.166,-238.072,59963
524.129,-239.434,59986
524.091,-240.796,59969
524.054,-242.159,60035
524.017,-243.521,59980
523.979,-244.884,60051
523.942,-246.247,59979
523.904,-247.611,59978
523.867,-248.974,59945
523.83,-250.338,59935
523.792,-251.702,59964
523.755,-253.066,59977
523.717,-254.43,59950
523.68,-255.794,59942
523.642,-257.159,60070
523.605,-258.524,60020
523.568,-259.889,60044
523.53,-261.254,59978
523.493,-262.62,60030
523.455,-263.985,59948
523.418,-265.351,60014
523.38,-266.717,59905
523.343,-268.084,59966
523.306,-269.45,59922
523.268,-270.817,60031
523.231,-272.183,60027
523.193,-273.55,60026
523.156,-274.918,60025
523.119,-276.285,60088
523.081,-277.653,59918
523.044,-279.02,59984
523.006,-280.388,60057
522.969,-281.757,59973
522.931,-283.125,59984
522.894,-284.494,59976
522.857,-285.862,59984
522.819,-287.231,59965
522.782,-288.6,59949
522.744,-289.97,60078
522.707,-291.339,59980
522.669,-292.709,59986
522.632,-294.079,59996
522.595,-295.449,60007
522.557,-296.82,59998
522.52,-298.19,59896
522.482,-299.561,59994
522.445,-300.932,60039
522.407,-302.303,59959
522.37,-303.674,60008
522.333,-305.046,60004
522.295,-306.417,59999
522.258,-307.789,60045
522.22,-309.161,59968
522.183,-310.534,60032
522.146,-311.906,59964
522.108,-313.279,60000
522.071,-314.652,59937
522.033,-316.025,59875
521.996,-317.398,59882
521.958,-318.772,60009
521.921,-320.145,60000
521.884,-321.519,60009
521.846,-322.893,59973
521.809,-324.268,59947
521.771,-325.642,59990
521.734,-327.017,59916
521.696,-328.392,59978
521.659,-329.767,60063
521.622,-331.142,60011
521.584,-332.517,60008
521.547,-333.893,59974
521.509,-335.269,59972
521.472,-336.645,59927
521.435,-338.021,59966
521.397,-339.398,60014
521.36,-340.774,60050
521.322,-342.151,59973
521.285,-343.528,59909
521.247,-344.905,59946
521.21,-346.283,59989
521.173,-347.66,59999
521.135,-349.038,59965
521.098,-350.416,60036
521.06,-351.795,59955
521.023,-353.173,59999
520.985,-354.552,59991
520.948,-355.93,60034
520.911,-357.309,60114
520.873,-358.689,60031
520.836,-360.068,59949
520.798,-361.448,60061
520.761,-362.828,60052
520.723,-364.208,59997
520.686,-365.588,60036
520.649,-366.968,59999
520.611,-368.349,59924
520.574,-369.73,59933
520.536,-371.111,59945
520.499,-372.492,59981
520.462,-373.873,59974
520.424,-375.255,59926
520.387,-376.637,60009
520.349,-378.019,59948
520.312,-379.401,60034
520.274,-380.783,60003
520.237,-382.166,60048
520.2,-383.548,59952
520.162,-384.931,60030
520.125,-386.315,60032
520.087,-387.698,59988
520.05,-389.082,60103
520.012,-390.465,59943
519.975,-391.849,59956
519.938,-393.234,60023
519.9,-394.618,59956
519.863,-396.003,60009
519.825,-397.387,59947
519.788,-398.772,59999
519.751,-400.158,60045
519.713,-401.543,60043
519.676,-402.928,60014
519.638,-404.314,59953
519.601,-405.7,59949
519.563,-407.086,59991
519.526,-408.473,59983
519.489,-409.859,59966
519.451,-411.246,60051
519.414,-412.633,59959
519.376,-414.02,60035
519.339,-415.408,59998
519.301,-416.795,59895
519.264,-418.183,60005
519.227,-419.571,59985
519.189,-420.959,60005
519.152,-422.348,59991
519.114,-423.736,60049
519.077,-425.125,60036
519.04,-426.514,59920
519.002,-427.903,59999
518.965,-429.292,60023
518.927,-430.682,60009
518.89,-432.072,60041
518.852,-433.462,59950
518.815,-434.852,59963
518.778,-436.242,60003
518.74,-437.633,59944
518.703,-439.024,60054
518.665,-440.415,59999
518.628,-441.806,60000
518.59,-443.197,60083
518.553,-444.589,59973
518.516,-445.981,59994
518.478,-447.373,59975
518.441,-448.765,59927
518.403,-450.157,60027
518.366,-451.55,59970
518.328,-452.943,59999
518.291,-454.336,59905
518.254,-455.729,60015
518.216,-457.122,59979
518.179,-458.516,60035
518.141,-459.91,60080
518.104,-461.304,59980
518.067,-462.698,59840
518.029,-464.092,60008
517.992,-465.487,59981
517.954,-466.882,59929
517.917,-468.277,60036
517.879,-469.672,59999
517.842,-471.067,59961
517.805,-472.463,60079
517.767,-473.859,60020
517.73,-475.255,60064
517.692,-476.651,60040
517.655,-478.047,60077
517.617,-479.444,59961
517.58,-480.841,59953
517.543,-482.238,60074
517.505,-483.635,59933
517.468,-485.032,59961
517.43,-486.43,60015
517.393,-487.828,60043
517.356,-489.226,59956
517.318,-490.624,59927
517.281,-492.023,59971
517.243,-493.421,60028
517.206,-494.82,60004
517.168,-496.219,59933
517.131,-497.618,60007
517.094,-499.018,59972
517.056,-500.417,59978
517.019,-501.817,59958
516.981,-503.217,60083
516.944,-504.618,59955
516.906,-506.018,60030
516.869,-507.419,59967
516.832,-508.82,59947
516.794,-510.221,59982
516.757,-511.622,60052
516.719,-513.023,59939
516.682,-514.425,59952
516.644,-515.827,59980
516.607,-517.229,59991
516.57,-518.631,59943
516.532,-520.034,59895
516.495,-521.437,60065
516.457,-522.839,59931
516.42,-524.243,59960
516.383,-525.646,59957
516.345,-527.049,59950
516.308,-528.453,60012
516.27,-529.857,59935
516.233,-531.261,60032
516.195,-532.665,60087
516.158,-534.07,60055
516.121,-535.475,60057
516.083,-536.88,59985
516.046,-538.285,60017
516.008,-539.69,59969
515.971,-541.096,59995
515.933,-542.501,59997
515.896,-543.907,59980
515.859,-545.314,59976
515.821,-546.72,59954
515.784,-548.126,60030
515.746,-549.533,59948
515.709,-550.94,60020
515.672,-552.347,59975
515.634,-553.755,59932
515.597,-555.162,60061
515.559,-556.57,59967
515.522,-557.978,59940
515.484,-559.386,60026
515.447,-560.795,59992
515.41,-562.203,59912
515.372,-563.612,59982
515.335,-565.021,60053
515.297,-566.43,59960
515.26,-567.84,60026
515.222,-569.25,60025
515.185,-570.659,59926
515.148,-572.069,59960
515.11,-573.48,60038
515.073,-574.89,59935
515.035,-576.301,59964
514.998,-577.712,59984
514.96,-579.123,60026
514.923,-580.534,59906
514.886,-581.945,59991
514.848,-583.357,59990
514.811,-584.769,59994
514.773,-586.181,60022
514.736,-587.593,59901
514.699,-589.006,60062
514.661,-590.419,59973
514.624,-591.832,59983
514.586,-593.245,59967
514.549,-594.658,60035
514.511,-596.072,60044
514.474,-597.485,59918
514.437,-598.899,59971
514.399,-600.313,60035
514.362,-601.728,60025
514.324,-603.142,60015
514.287,-604.557,60029
514.249,-605.972,59959
514.212,-607.387,60032
514.175,-608.803,59939
514.137,-610.218,60002
514.1,-611.634,59964
514.062,-613.05,59862
514.025,-614.466,59970
513.988,-615.883,60005
513.95,-617.299,59992
513.913,-618.716,59976
513.875,-620.133,59967
513.838,-621.55,60005
513.8,-622.968,59981
513.763,-624.385,59977
513.726,-625.803,59990
513.688,-627.221,59986
513.651,-628.64,60002
513.613,-630.058,60062
513.576,-631.477,59991
513.538,-632.896,59949
513.501,-634.315,59952
513.464,-635.734,59967
513.426,-637.154,59967
513.389,-638.573,60009
513.351,-639.993,60004
513.314,-641.413,60037
513.277,-642.834,60099
513.239,-644.254,60050
513.202,-645.675,59951
513.164,-647.096,59983
513.127,-648.517,59980
513.089,-649.939,59945
513.052,-651.36,60087
513.015,-652.782,60024
512.977,-654.204,60055
512.94,-655.626,59946
512.902,-657.049,59931
512.865,-658.471,59998
512.827,-659.894,60097
512.79,-661.317,60005
512.753,-662.74,60013
512.715,-664.164,60005
512.678,-665.587,59956
512.64,-667.011,59972
512.603,-668.435,60039
512.565,-669.86,60007
512.528,-671.284,59976
512.491,-672.709,59988
512.453,-674.134,59974
512.416,-675.559,59983
512.378,-676.984,60033
512.341,-678.41,59977
512.304,-679.835,59953
512.266,-681.261,60032
512.229,-682.688,59936
512.191,-684.114,60026
512.154,-685.54,60029
512.116,-686.967,60038
512.079,-688.394,59939
512.042,-689.821,59973
512.004,-691.249,59990
511.967,-692.677,59988
511.929,-694.104,59946
511.892,-695.532,59909
511.854,-696.961,59896
511.817,-698.389,59974
511.78,-699.818,59905
511.742,-701.247,59976
511.705,-702.676,60022
511.667,-704.105,60007
511.63,-705.534,59923
511.593,-706.964,59969
511.555,-708.394,59958
511.518,-709.824,60003
511.48,-711.255,60026
511.443,-712.685,59953
511.405,-714.116,60006
511.368,-715.547,59979
511.331,-716.978,60008
511.293,-718.409,60059
511.256,-719.841,59961
511.218,-721.273,59979
511.181,-722.705,60030
511.143,-724.137,59946
511.106,-725.569,60097
511.069,-727.002,60044
511.031,-728.435,59925
510.994,-729.868,60016
510.956,-731.301,59958
510.919,-732.735,59946
510.881,-734.168,60020
510.844,-735.602,59972
510.807,-737.036,59993
510.769,-738.471,59978
510.732,-739.905,59943
510.694,-741.34,60067
510.657,-742.775,59958
510.62,-744.21,60070
510.582,-745.646,59999
510.545,-747.081,59979
510.507,-748.517,59941
510.47,-749.953,59978
510.432,-751.389,60029
510.395,-752.826,59974
510.358,-754.262,59942
510.32,-755.699,59960
510.283,-757.136,59895
510.245,-758.573,60066
510.208,-760.011,59970
510.17,-761.448,59978
510.133,-762.886,59906
510.096,-764.325,60003
510.058,-765.763,59921
510.021,-767.201,60002
509.983,-768.64,60046
509.946,-770.079,60006
509.909,-771.518,60060
509.871,-772.958,59935
509.834,-774.397,60049
509.796,-775.837,59961
509.759,-777.277,59966
509.721,-778.717,59902
509.684,-780.158,60058
509.647,-781.598,60044
509.609,-783.039,59926
509.572,-784.48,60010
509.534,-785.922,60032
509.497,-787.363,59975
509.459,-788.805,59905
509.422,-790.247,60001
509.385,-791.689,59978
509.347,-793.131,59921
509.31,-794.574,60024
509.272,-796.016,60049
509.235,-797.459,59982
509.198,-798.903,59983
509.16,-800.346,59970
509.123,-801.79,60000
509.085,-803.233,60005
509.048,-804.677,60046
509.01,-806.122,59928
508.973,-807.566,60023
508.936,-809.011,60033
508.898,-810.456,59925
508.861,-811.901,59989
508.823,-813.346,60039
508.786,-814.792,59995
508.748,-816.237,59952
508.711,-817.683,59982
508.674,-819.13,60012
525.351,-195.038,59856
525.314,-196.394,60103
525.277,-197.75,59999
525.239,-199.106,60005
525.202,-200.463,60057
525.164,-201.82,60022
525.127,-203.177,60026
525.089,-204.534,59938
525.052,-205.891,59991
525.015,-207.249,59968
524.977,-208.606,60015
524.94,-209.964,60063
524.902,-211.322,60037
524.865,-212.681,60019
524.827,-214.039,59974
524.79,-215.398,60009
524.753,-216.757,60009
524.715,-218.116,60043
524.678,-219.475,60030
524.64,-220.835,60076
524.603,-222.194,59960
524.565,-223.554,59979
524.528,-224.914,59923
524.491,-226.275,59974
524.453,-227.635,60041
524.416,-228.996,59947
524.378,-230.356,59953
524.341,-231.717,60053
524.304,-233.079,60041
524.266,-234.44,59954
524.229,-235.802,60054
524.191,-237.164,59955
524.154,-238.526,60016
524.116,-239.888,60026
524.079,-241.25,60114
524.042,-242.613,59949
524.004,-243.976,59988
523.967,-245.339,60015
523.929,-246.702,60010
523.892,-248.065,59917
523.854,-249.429,60032
523.817,-250.792,59979
523.78,-252.156,59993
523.742,-253.52,60029
523.705,-254.885,59961
523.667,-256.249,60032
523.63,-257.614,59986
523.593,-258.979,59998
523.555,-260.344,59990
523.518,-261.709,60004
523.48,-263.075,59980
523.443,-264.441,60017
523.405,-265.807,60044
523.368,-267.173,59925
523.331,-268.539,59941
523.293,-269.905,59999
523.256,-271.272,59972
523.218,-272.639,59897
523.181,-274.006,60031
523.143,-275.373,59990
523.106,-276.741,60017
523.069,-278.109,60034
523.031,-279.476,59966
522.994,-280.844,59929
522.956,-282.213,59905
522.919,-283.581,59949
522.881,-284.95,59964
522.844,-286.319,59886
522.807,-287.688,59996
522.769,-289.057,59952
522.732,-290.426,59980
522.694,-291.796,59963
522.657,-293.166,59989
522.62,-294.536,59984
522.582,-295.906,59869
522.545,-297.276,60009
522.507,-298.647,59889
522.47,-300.018,60003
522.432,-301.389,59939
522.395,-302.76,59965
522.358,-304.131,60019
522.32,-305.503,59991
522.283,-306.875,60004
522.245,-308.247,60005
522.208,-309.619,59948
522.17,-310.991,59972
522.133,-312.364,60019
522.096,-313.737,60079
522.058,-315.11,60026
522.021,-316.483,60037
521.983,-317.856,59993
521.946,-319.23,59911
521.909,-320.603,59947
521.871,-321.977,59934
521.834,-323.351,59942
521.796,-324.726,60072
521.759,-326.1,60020
521.721,-327.475,60044
521.684,-328.85,60008
521.647,-330.225,59958
521.609,-331.6,60001
521.572,-332.976,60014
521.534,-334.352,60045
521.497,-335.728,59985
521.459,-337.104,59886
521.422,-338.48,59976
521.385,-339.857,59909
521.347,-341.233,59996
521.31,-342.61,59935
521.272,-343.987,59918
521.235,-345.365,60000
521.198,-346.742,60047
521.16,-348.12,59928
521.123,-349.498,60008
521.085,-350.876,59981
521.048,-352.254,59944
521.01,-353.633,59970
520.973,-355.011,59943
520.936,-356.39,59933
520.898,-357.769,59916
520.861,-359.148,59934
520.823,-360.528,59931
520.786,-361.908,59990
520.748,-363.287,59949
520.711,-364.668,59939
520.674,-366.048,59917
520.636,-367.428,59982
520.599,-368.809,60028
520.561,-370.19,60026
520.524,-371.571,59941
520.486,-372.952,59938
520.449,-374.334,59839
520.412,-375.715,59953
520.374,-377.097,59951
520.337,-378.479,59967
520.299,-379.861,60028
520.262,-381.244,59982
520.225,-382.627,59967
520.187,-384.009,59982
520.15,-385.393,59978
520.112,-386.776,59965
520.075,-388.159,59904
520.037,-389.543,60015
520.0,-390.927,59964
519.963,-392.311,60002
519.925,-393.695,59942
519.888,-395.079,59927
519.85,-396.464,59988
519.813,-397.849,60028
519.775,-399.234,59996
519.738,-400.619,59982
519.701,-402.005,60019
519.663,-403.39,59983
519.626,-404.776,59980
519.588,-406.162,59975
519.551,-407.548,60005
519.514,-408.935,59950
519.476,-410.322,60042
519.439,-411.708,59952
519.401,-413.095,60041
519.364,-414.483,60026
519.326,-415.87,60076
519.289,-417.258,60060
519.252,-418.646,60068
519.214,-420.034,60029
519.177,-421.422,60041
519.139,-422.81,59983
519.102,-424.199,59954
519.064,-425.588,60008
519.027,-426.977,59988
518.99,-428.366,60008
518.952,-429.756,59897
518.915,-431.145,59976
518.877,-432.535,59966
518.84,-433.925,60048
518.802,-435.315,60013
518.765,-436.706,59980
518.728,-438.096,59970
518.69,-439.487,59969
518.653,-440.878,59997
518.615,-442.27,59915
518.578,-443.661,59961
518.541,-445.053,59922
518.503,-446.445,59955
518.466,-447.837,60012
518.428,-449.229,60026
518.391,-450.621,59981
518.353,-452.014,60037
518.316,-453.407,59959
518.279,-454.8,59963
518.241,-456.193,59947
518.204,-457.587,60028
518.166,-458.98,60020
518.129,-460.374,60008
518.091,-461.768,60027
518.054,-463.163,60007
518.017,-464.557,59981
517.979,-465.952,59993
517.942,-467.347,59939
517.904,-468.742,60044
517.867,-470.137,59979
517.83,-471.532,60027
517.792,-472.928,60023
517.755,-474.324,59938
517.717,-475.72,59991
517.68,-477.116,59996
517.642,-478.513,59971
517.605,-479.909,60012
517.568,-481.306,59995
517.53,-482.703,60044
517.493,-484.101,60039
517.455,-485.498,59906
517.418,-486.896,59971
517.38,-488.294,60023
517.343,-489.692,59987
517.306,-491.09,59918
517.268,-492.489,59945
517.231,-493.887,59961
517.193,-495.286,59926
517.156,-496.685,60082
517.119,-498.085,60044
517.081,-499.484,60020
517.044,-500.884,60001
517.006,-502.284,59943
516.969,-503.684,60023
516.931,-505.084,59960
516.894,-506.485,60040
516.857,-507.886,60058
516.819,-509.287,59900
516.782,-510.688,60029
516.744,-512.089,59911
516.707,-513.491,59966
516.669,-514.892,59909
516.632,-516.294,60022
516.595,-517.696,60022
516.557,-519.099,59940
516.52,-520.501,60042
516.482,-521.904,59932
516.445,-523.307,59940
516.407,-524.71,59953
516.37,-526.114,59975
516.333,-527.517,59961
516.295,-528.921,59950
516.258,-530.325,60042
516.22,-531.729,60001
516.183,-533.134,60000
516.146,-534.538,60020
516.108,-535.943,59926
516.071,-537.348,59995
516.033,-538.753,59998
515.996,-540.159,60018
515.958,-541.564,60039
515.921,-542.97,59983
515.884,-544.376,60030
515.846,-545.782,59974
515.809,-547.189,59957
515.771,-548.595,60019
515.734,-550.002,59994
515.696,-551.409,60011
515.659,-552.817,60003
515.622,-554.224,60024
515.584,-555.632,60063
515.547,-557.039,59944
515.509,-558.448,60053
515.472,-559.856,59937
515.435,-561.264,60015
515.397,-562.673,59944
515.36,-564.082,60047
515.322,-565.491,60001
515.285,-566.9,60011
515.247,-568.31,59993
515.21,-569.719,60046
515.173,-571.129,59946
515.135,-572.539,60041
515.098,-573.95,59988
515.06,-575.36,60038
515.023,-576.771,59885
514.985,-578.182,60026
514.948,-579.593,59978
514.911,-581.004,59996
514.873,-582.416,59973
514.836,-583.828,59941
514.798,-585.24,59996
514.761,-586.652,59988
514.723,-588.064,60039
514.686,-589.477,60017
514.649,-590.89,59943
514.611,-592.303,60007
514.574,-593.716,59978
514.536,-595.129,59971
514.499,-596.543,59972
514.462,-597.957,60000
514.424,-599.371,59967
514.387,-600.785,60035
514.349,-602.199,60001
514.312,-603.614,59985
514.274,-605.029,60016
514.237,-606.444,59949
514.2,-607.859,60015
514.162,-609.274,59990
514.125,-610.69,60009
514.087,-612.106,60030
514.05,-613.522,59998
514.012,-614.938,59952
513.975,-616.355,59934
513.938,-617.771,60025
513.9,-619.188,59944
513.863,-620.605,59970
513.825,-622.023,60039
513.788,-623.44,60037
513.751,-624.858,59967
513.713,-626.276,60013
513.676,-627.694,60031
513.638,-629.112,60047
513.601,-630.531,59971
513.563,-631.95,59917
513.526,-633.369,60002
513.489,-634.788,60019
513.451,-636.207,60029
513.414,-637.627,59969
513.376,-639.047,59940
513.339,-640.467,59897
513.301,-641.887,59961
513.264,-643.307,60020
513.227,-644.728,60012
513.189,-646.149,59893
513.152,-647.57,59956
513.114,-648.991,60041
513.077,-650.412,60067
513.04,-651.834,60021
513.002,-653.256,59945
512.965,-654.678,60006
512.927,-656.1,59984
512.89,-657.523,59944
512.852,-658.945,59905
512.815,-660.368,60023
512.778,-661.791,60135
512.74,-663.215,60011
512.703,-664.638,60069
512.665,-666.062,60000
512.628,-667.486,59940
512.59,-668.91,59991
512.553,-670.334,60013
512.516,-671.759,59989
512.478,-673.184,59919
512.441,-674.609,60027
512.403,-676.034,60025
512.366,-677.459,59939
512.328,-678.885,59997
512.291,-680.311,59978
512.254,-681.737,60004
512.216,-683.163,59966
512.179,-684.589,59951
512.141,-686.016,59943
512.104,-687.443,60026
512.067,-688.87,59980
512.029,-690.297,59932
511.992,-691.725,59926
511.954,-693.152,60010
511.917,-694.58,59987
511.879,-696.008,59992
511.842,-697.437,60026
511.805,-698.865,60010
511.767,-700.294,60025
511.73,-701.723,59981
511.692,-703.152,59929
511.655,-704.581,59986
511.617,-706.011,60000
511.58,-707.441,59936
511.543,-708.871,60060
511.505,-710.301,59969
511.468,-711.731,60033
511.43,-713.162,60066
511.393,-714.593,59970
511.356,-716.024,60021
511.318,-717.455,60056
511.281,-718.887,59989
511.243,-720.318,59872
511.206,-721.75,60079
511.168,-723.182,60054
511.131,-724.614,59994
511.094,-726.047,60008
511.056,-727.48,60011
511.019,-728.913,60105
510.981,-730.346,60027
510.944,-731.779,60048
510.906,-733.213,59967
510.869,-734.646,59928
510.832,-736.08,59877
510.794,-737.515,60085
510.757,-738.949,59994
510.719,-740.384,60012
510.682,-741.818,60067
510.644,-743.253,60051
510.607,-744.689,59940
510.57,-746.124,59942
510.532,-747.56,59999
510.495,-748.996,60041
510.457,-750.432,59919
510.42,-751.868,59981
510.383,-753.304,59992
510.345,-754.741,60016
510.308,-756.178,59962
510.27,-757.615,59935
510.233,-759.052,59965
510.195,-760.49,59966
510.158,-761.928,59924
510.121,-763.366,59990
510.083,-764.804,60040
510.046,-766.242,60093
510.008,-767.681,60065
509.971,-769.12,59899
509.933,-770.559,60043
509.896,-771.998,59947
509.859,-773.437,59987
509.821,-774.877,59940
509.784,-776.317,60032
509.746,-777.757,60050
509.709,-779.197,60130
509.672,-780.638,60075
509.634,-782.079,60003
509.597,-783.52,59921
509.559,-784.961,59951
509.522,-786.402,59966
509.484,-787.844,60063
509.447,-789.285,59937
509.41,-790.727,59999
509.372,-792.17,60000
509.335,-793.612,59979
509.297,-795.055,60002
509.26,-796.497,59989
509.222,-797.94,59961
509.185,-799.384,60031
509.148,-800.827,60059
509.11,-802.271,59932
509.073,-803.715,60030
509.035,-805.159,59977
508.998,-806.603,59940
508.96,-808.048,59992
508.923,-809.492,60046
508.886,-810.937,60061
508.848,-812.383,59983
508.811,-813.828,59936
508.773,-815.274,60049
508.736,-816.719,59929
508.699,-818.165,59906
508.661,-819.612,60036
525.339,-195.49,59915
525.301,-196.846,60023
525.264,-198.202,60058
525.227,-199.558,59935
525.189,-200.915,60022
525.152,-202.272,60024
525.114,-203.629,59997
525.077,-204.986,59999
525.04,-206.344,60046
525.002,-207.701,59902
524.965,-209.059,60031
524.927,-210.417,60099
524.89,-211.775,59980
524.852,-213.133,60017
524.815,-214.492,60027
524.778,-215.851,59933
524.74,-217.21,59893
524.703,-218.569,59934
524.665,-219.928,60031
524.628,-221.288,60024
524.59,-222.648,60009
524.553,-224.008,59988
524.516,-225.368,60065
524.478,-226.728,59936
524.441,-228.088,59995
524.403,-229.449,59958
524.366,-230.81,59928
524.328,-232.171,59992
524.291,-233.532,59998
524.254,-234.894,59930
524.216,-236.256,59996
524.179,-237.618,60050
524.141,-238.98,60024
524.104,-240.342,59972
524.067,-241.704,59980
524.029,-243.067,60062
523.992,-244.43,60020
523.954,-245.793,59983
523.917,-247.156,60037
523.879,-248.52,59981
523.842,-249.883,60026
523.805,-251.247,60027
523.767,-252.611,59981
523.73,-253.975,59968
523.692,-255.34,60027
523.655,-256.704,59977
523.617,-258.069,59978
523.58,-259.434,59907
523.543,-260.799,60039
523.505,-262.165,60011
523.468,-263.53,59987
523.43,-264.896,59987
523.393,-266.262,60028
523.356,-267.628,59944
523.318,-268.994,60029
523.281,-270.361,59969
523.243,-271.728,60002
523.206,-273.095,60105
523.168,-274.462,60026
523.131,-275.829,59997
523.094,-277.197,59948
523.056,-278.564,59911
523.019,-279.932,59958
522.981,-281.3,60026
522.944,-282.669,60008
522.906,-284.037,59997
522.869,-285.406,60034
522.832,-286.775,59978
522.794,-288.144,60017
522.757,-289.513,60008
522.719,-290.883,59973
522.682,-292.252,59945
522.644,-293.622,59991
522.607,-294.992,59925
522.57,-296.363,60048
522.532,-297.733,60047
522.495,-299.104,60059
522.457,-300.475,60034
522.42,-301.846,59948
522.383,-303.217,59973
522.345,-304.589,60067
522.308,-305.96,59950
522.27,-307.332,60017
522.233,-308.704,59982
522.195,-310.076,59998
522.158,-311.449,59981
522.121,-312.821,60003
522.083,-314.194,59917
522.046,-315.567,60019
522.008,-316.94,60059
521.971,-318.314,60043
521.933,-319.687,59937
521.896,-321.061,60037
521.859,-322.435,60004
521.821,-323.81,59916
521.784,-325.184,60055
521.746,-326.559,59917
521.709,-327.933,60039
521.672,-329.308,60085
521.634,-330.684,60035
521.597,-332.059,59957
521.559,-333.434,59986
521.522,-334.81,59972
521.484,-336.186,60009
521.447,-337.562,59987
521.41,-338.939,59932
521.372,-340.315,60004
521.335,-341.692,59906
521.297,-343.069,59987
521.26,-344.446,60024
521.222,-345.824,59964
521.185,-347.201,59889
521.148,-348.579,59971
521.11,-349.957,59974
521.073,-351.335,59966
521.035,-352.714,59984
520.998,-354.092,60066
520.96,-355.471,60036
520.923,-356.85,59888
520.886,-358.229,60003
520.848,-359.608,59949
520.811,-360.988,59975
520.773,-362.368,59937
520.736,-363.747,59960
520.699,-365.128,60067
520.661,-366.508,60028
520.624,-367.889,60084
520.586,-369.269,60032
520.549,-370.65,59950
520.511,-372.031,60004
520.474,-373.413,59986
520.437,-374.794,59999
520.399,-376.176,59972
520.362,-377.558,60026
520.324,-378.94,59957
520.287,-380.322,60023
520.249,-381.705,59980
520.212,-383.088,59946
520.175,-384.47,59957
520.137,-385.854,59912
520.1,-387.237,60005
520.062,-388.62,59921
520.025,-390.004,60022
519.988,-391.388,59989
519.95,-392.772,59966
519.913,-394.156,60004
519.875,-395.541,59999
519.838,-396.926,59959
519.8,-398.311,59973
519.763,-399.696,59968
519.726,-401.081,59970
519.688,-402.467,60057
519.651,-403.852,60026
519.613,-405.238,60009
519.576,-406.624,60011
519.538,-408.011,60064
519.501,-409.397,60011
519.464,-410.784,59995
519.426,-412.171,59972
519.389,-413.558,60020
519.351,-414.945,59953
519.314,-416.333,59967
519.277,-417.72,60059
519.239,-419.108,59950
519.202,-420.496,60007
519.164,-421.885,59959
519.127,-423.273,59932
519.089,-424.662,60128
519.052,-426.051,59926
519.015,-427.44,59942
518.977,-428.829,60026
518.94,-430.219,59995
518.902,-431.609,59958
518.865,-432.998,59953
518.827,-434.389,59962
518.79,-435.779,59984
518.753,-437.169,60001
518.715,-438.56,59945
518.678,-439.951,60031
518.64,-441.342,59975
518.603,-442.733,60076
518.565,-444.125,60046
518.528,-445.517,60004
518.491,-446.909,60048
518.453,-448.301,59979
518.416,-449.693,60018
518.378,-451.086,59943
518.341,-452.478,60045
518.304,-453.871,60051
518.266,-455.264,60013
518.229,-456.658,59987
518.191,-458.051,60045
518.154,-459.445,60006
518.116,-460.839,60011
518.079,-462.233,59981
518.042,-463.627,59983
518.004,-465.022,59967
517.967,-466.417,59896
517.929,-467.812,59955
517.892,-469.207,60024
517.854,-470.602,59937
517.817,-471.998,59968
517.78,-473.393,60000
517.742,-474.789,59965
517.705,-476.185,59995
517.667,-477.582,59996
517.63,-478.978,60000
517.593,-480.375,60081
517.555,-481.772,60014
517.518,-483.169,60002
517.48,-484.567,60010
517.443,-485.964,59989
517.405,-487.362,59989
517.368,-488.76,59953
517.331,-490.158,60029
517.293,-491.556,59956
517.256,-492.955,59980
517.218,-494.354,59979
517.181,-495.753,59973
517.143,-497.152,59958
517.106,-498.551,59989
517.069,-499.951,59980
517.031,-501.351,60006
516.994,-502.751,60038
516.956,-504.151,60012
516.919,-505.551,59999
516.881,-506.952,60016
516.844,-508.353,60021
516.807,-509.754,60023
516.769,-511.155,60004
516.732,-512.556,59987
516.694,-513.958,59964
516.657,-515.36,59947
516.62,-516.762,60005
516.582,-518.164,60020
516.545,-519.566,60031
516.507,-520.969,59933
516.47,-522.372,59964
516.432,-523.775,59991
516.395,-525.178,60042
516.358,-526.582,60057
516.32,-527.985,60053
516.283,-529.389,60044
516.245,-530.793,59960
516.208,-532.197,60031
516.17,-533.602,59976
516.133,-535.006,60028
516.096,-536.411,59936
516.058,-537.816,59957
516.021,-539.222,60021
515.983,-540.627,60002
515.946,-542.033,60007
515.909,-543.439,60031
515.871,-544.845,59947
515.834,-546.251,60051
515.796,-547.658,59978
515.759,-549.064,59991
515.721,-550.471,59974
515.684,-551.878,59976
515.647,-553.286,59997
515.609,-554.693,60005
515.572,-556.101,59981
515.534,-557.509,59965
515.497,-558.917,59987
515.459,-560.325,59872
515.422,-561.734,60007
515.385,-563.143,60079
515.347,-564.552,60033
515.31,-565.961,59985
515.272,-567.37,59959
515.235,-568.78,59956
515.198,-570.189,60050
515.16,-571.599,59930
515.123,-573.01,60063
515.085,-574.42,59996
515.048,-575.831,60052
515.01,-577.241,60039
514.973,-578.652,59951
514.936,-580.064,59907
514.898,-581.475,60005
514.861,-582.887,60079
514.823,-584.298,59998
514.786,-585.71,60049
514.748,-587.123,59986
514.711,-588.535,59873
514.674,-589.948,60029
514.636,-591.361,60036
514.599,-592.774,60030
514.561,-594.187,59977
514.524,-595.6,59978
514.486,-597.014,60032
514.449,-598.428,59975
514.412,-599.842,60078
514.374,-601.256,59966
514.337,-602.671,60040
514.299,-604.085,59936
514.262,-605.5,60020
514.225,-606.915,59931
514.187,-608.331,59990
514.15,-609.746,59987
514.112,-611.162,59985
514.075,-612.578,59908
514.037,-613.994,60022
514.0,-615.41,59931
513.963,-616.827,60007
513.925,-618.244,59998
513.888,-619.661,59988
513.85,-621.078,60077
513.813,-622.495,59882
513.775,-623.913,60001
513.738,-625.331,59982
513.701,-626.749,60041
513.663,-628.167,60016
513.626,-629.585,59998
513.588,-631.004,59936
513.551,-632.423,60021
513.514,-633.842,60030
513.476,-635.261,60047
513.439,-636.68,59927
513.401,-638.1,59967
513.364,-639.52,60044
513.326,-640.94,60030
513.289,-642.36,60017
513.252,-643.781,60004
513.214,-645.201,60067
513.177,-646.622,60025
513.139,-648.043,59989
513.102,-649.465,59997
513.064,-650.886,60017
513.027,-652.308,60022
512.99,-653.73,59984
512.952,-655.152,59981
512.915,-656.574,60038
512.877,-657.997,60002
512.84,-659.42,60030
512.802,-660.843,60043
512.765,-662.266,59941
512.728,-663.689,59950
512.69,-665.113,59967
512.653,-666.537,60051
512.615,-667.961,59988
512.578,-669.385,60077
512.541,-670.809,59977
512.503,-672.234,59932
512.466,-673.659,59999
512.428,-675.084,59977
512.391,-676.509,59998
512.353,-677.935,60002
512.316,-679.36,60058
512.279,-680.786,59984
512.241,-682.212,60038
512.204,-683.638,60050
512.166,-685.065,59998
512.129,-686.492,60034
512.091,-687.919,59980
512.054,-689.346,59959
512.017,-690.773,60022
511.979,-692.201,59985
511.942,-693.628,60000
511.904,-695.056,59958
511.867,-696.485,60053
511.83,-697.913,59993
511.792,-699.341,60041
511.755,-700.77,60075
511.717,-702.199,59993
511.68,-703.629,59965
511.642,-705.058,60048
511.605,-706.488,60032
511.568,-707.917,60028
511.53,-709.347,59934
511.493,-710.778,60058
511.455,-712.208,60033
511.418,-713.639,60015
511.38,-715.07,60000
511.343,-716.501,59965
511.306,-717.932,60093
511.268,-719.364,60007
511.231,-720.795,60062
511.193,-722.227,59958
511.156,-723.66,60020
511.119,-725.092,60054
511.081,-726.525,59997
511.044,-727.957,60010
511.006,-729.39,59982
510.969,-730.823,60022
510.931,-732.257,59964
510.894,-733.691,60062
510.857,-735.124,60072
510.819,-736.558,59981
510.782,-737.993,59959
510.744,-739.427,60020
510.707,-740.862,59924
510.669,-742.297,59955
510.632,-743.732,59959
510.595,-745.167,59985
510.557,-746.603,59949
510.52,-748.038,59937
510.482,-749.474,60008
510.445,-750.91,59932
510.407,-752.347,59991
510.37,-753.783,59957
510.333,-755.22,60000
510.295,-756.657,59982
510.258,-758.094,59994
510.22,-759.532,60023
510.183,-760.969,60002
510.146,-762.407,60067
510.108,-763.845,59996
510.071,-765.283,59998
510.033,-766.722,60023
509.996,-768.161,60015
509.958,-769.599,60007
509.921,-771.038,59978
509.884,-772.478,59969
509.846,-773.917,60006
509.809,-775.357,59966
509.771,-776.797,59916
509.734,-778.237,59979
509.696,-779.677,60013
509.659,-781.118,59969
509.622,-782.559,59935
509.584,-784,60026
509.547,-785.441,59943
509.509,-786.882,60021
509.472,-788.324,60005
509.435,-789.766,59986
509.397,-791.208,59999
509.36,-792.65,60046
509.322,-794.093,59911
509.285,-795.535,59984
509.247,-796.978,60004
509.21,-798.421,60010
509.173,-799.865,59953
509.135,-801.308,60012
509.098,-802.752,60021
509.06,-804.196,59976
509.023,-805.64,60028
508.985,-807.085,59987
508.948,-808.529,59996
508.911,-809.974,59972
508.873,-811.419,60002
508.836,-812.864,60061
508.798,-814.31,59974
508.761,-815.755,60023
508.723,-817.201,59943
508.686,-818.647,60024
508.661,-819.612,59966