File: tomke/20240809_Si_on_TiO2/20240809/raw_data/TiO2_flash_50mA_695.txt
Wavelength(nm), Raman shift(cm^-1), Intensity(counts)
702.12,661.884,176516
702.067,660.806,176147
702.014,659.729,176929
701.961,658.652,176998
701.908,657.574,176409
701.855,656.496,177084
701.801,655.418,177120
701.748,654.34,176660
701.695,653.262,177293
701.642,652.184,177209
701.589,651.105,176682
701.536,650.026,176646
701.483,648.947,176661
701.43,647.868,177048
701.377,646.789,177132
701.324,645.71,176700
701.271,644.63,176693
701.217,643.55,176885
701.164,642.47,176780
701.111,641.39,177612
701.058,640.31,177006
701.005,639.23,177075
700.952,638.149,177622
700.899,637.069,177011
700.846,635.988,177799
700.793,634.907,177267
700.74,633.825,177478
700.686,632.744,177469
700.633,631.663,177248
700.58,630.581,177361
700.527,629.499,177747
700.474,628.417,176951
700.421,627.335,177333
700.368,626.252,177303
700.315,625.17,177869
700.262,624.087,177946
700.209,623.004,177025
700.156,621.921,177469
700.102,620.838,178258
700.049,619.755,176941
699.996,618.671,177390
699.943,617.588,176963
699.89,616.504,177663
699.837,615.42,176858
699.784,614.336,177521
699.731,613.251,177732
699.678,612.167,177391
699.625,611.082,176888
699.571,609.997,177010
699.518,608.912,177152
699.465,607.827,177031
699.412,606.742,177378
699.359,605.657,176801
699.306,604.571,178217
699.253,603.485,177974
699.2,602.399,177224
699.147,601.313,178615
699.094,600.227,177310
699.041,599.14,177611
698.987,598.054,176952
698.934,596.967,176934
698.881,595.88,177665
698.828,594.793,177365
698.775,593.705,176369
698.722,592.618,177910
698.669,591.53,175597
698.616,590.443,178382
698.563,589.355,176983
698.51,588.266,176945
698.456,587.178,176763
698.403,586.09,176418
698.35,585.001,177141
698.297,583.912,177780
698.244,582.823,176889
698.191,581.734,177416
698.138,580.645,177524
698.085,579.556,177153
698.032,578.466,177200
697.979,577.376,176394
697.926,576.286,177934
697.872,575.196,177597
697.819,574.106,177463
697.766,573.015,177118
697.713,571.925,177056
697.66,570.834,176877
697.607,569.743,177344
697.554,568.652,177716
697.501,567.561,177123
697.448,566.469,176861
697.395,565.378,177803
697.341,564.286,177483
697.288,563.194,177526
697.235,562.102,176886
697.182,561.01,176916
697.129,559.917,177503
697.076,558.825,177983
697.023,557.732,177493
696.97,556.639,177663
696.917,555.546,177955
696.864,554.453,177417
696.811,553.359,177561
696.757,552.266,177196
696.704,551.172,177953
696.651,550.078,177469
696.598,548.984,177047
696.545,547.889,176833
696.492,546.795,177867
696.439,545.7,177778
696.386,544.606,178388
696.333,543.511,176925
696.28,542.416,177940
696.226,541.32,177847
696.173,540.225,177664
696.12,539.129,177137
696.067,538.034,178229
696.014,536.938,177813
695.961,535.842,177184
695.908,534.745,177938
695.855,533.649,177512
695.802,532.552,177636
695.749,531.455,177623
695.696,530.359,177604
695.642,529.261,177410
695.589,528.164,177663
695.536,527.067,177413
695.483,525.969,177627
695.43,524.871,177514
695.377,523.773,177900
695.324,522.675,178196
695.271,521.577,177613
695.218,520.479,177374
695.165,519.38,177881
695.111,518.281,177678
695.058,517.182,177652
695.005,516.083,178231
694.952,514.984,177644
694.899,513.884,177760
694.846,512.785,177863
694.793,511.685,177858
694.74,510.585,178460
694.687,509.485,177758
694.634,508.385,177996
694.581,507.284,177907
694.527,506.183,178275
694.474,505.083,193880
694.421,503.982,177718
694.368,502.881,178356
694.315,501.779,177818
694.262,500.678,177531
694.209,499.576,177723
694.156,498.474,178634
694.103,497.372,177585
694.05,496.27,177572
693.997,495.168,178265
693.943,494.065,177977
693.89,492.963,177455
693.837,491.86,177352
693.784,490.757,178187
693.731,489.654,177909
693.678,488.55,177276
693.625,487.447,177883
693.572,486.343,178791
693.519,485.239,177652
693.466,484.135,178860
693.412,483.031,178305
693.359,481.927,178276
693.306,480.822,178516
693.253,479.718,177729
693.2,478.613,178028
693.147,477.508,177987
693.094,476.403,178102
693.041,475.297,178412
692.988,474.192,178930
692.935,473.086,178671
692.882,471.98,178038
692.828,470.874,177785
692.775,469.768,178291
692.722,468.662,178322
692.669,467.555,178371
692.616,466.448,177800
692.563,465.342,178537
692.51,464.234,178819
692.457,463.127,178628
692.404,462.02,177651
692.351,460.912,178374
692.297,459.805,177935
692.244,458.697,178153
692.191,457.589,177731
692.138,456.48,178593
692.085,455.372,177929
692.032,454.263,178053
691.979,453.155,178296
691.926,452.046,178725
691.873,450.937,178409
691.82,449.827,177861
691.767,448.718,177824
691.713,447.608,178451
691.66,446.498,178411
691.607,445.389,177776
691.554,444.278,178751
691.501,443.168,177783
691.448,442.058,177994
691.395,440.947,178024
691.342,439.836,178315
691.289,438.725,179063
691.236,437.614,178468
691.182,436.503,178563
691.129,435.391,178066
691.076,434.28,178498
691.023,433.168,178805
690.97,432.056,178358
690.917,430.944,178375
690.864,429.831,178914
690.811,428.719,178265
690.758,427.606,178844
690.705,426.493,178485
690.652,425.38,178403
690.598,424.267,178125
690.545,423.154,178467
690.492,422.04,178636
690.439,420.927,178033
690.386,419.813,178757
690.333,418.699,179163
690.28,417.584,178406
690.227,416.47,179069
690.174,415.356,178608
690.121,414.241,178799
690.067,413.126,178885
690.014,412.011,178800
689.961,410.896,178889
689.908,409.78,178839
689.855,408.665,178351
689.802,407.549,178210
689.749,406.433,179195
689.696,405.317,178826
689.643,404.2,178846
689.59,403.084,178518
689.537,401.967,178919
689.483,400.851,178752
689.43,399.734,178774
689.377,398.617,178953
689.324,397.499,178979
689.271,396.382,178324
689.218,395.264,178738
689.165,394.146,178995
689.112,393.028,178878
689.059,391.91,178919
689.006,390.792,179396
688.952,389.673,178812
688.899,388.555,179142
688.846,387.436,178563
688.793,386.317,178514
688.74,385.197,179097
688.687,384.078,178669
688.634,382.958,179002
688.581,381.839,178374
688.528,380.719,178331
688.475,379.599,179005
688.422,378.479,178989
688.368,377.358,177964
688.315,376.238,177227
688.262,375.117,177778
688.209,373.996,177401
688.156,372.875,177294
688.103,371.754,176739
688.05,370.632,175822
687.997,369.51,175844
687.944,368.389,175352
702.12,661.884,182421
702.067,660.806,182636
702.014,659.729,182931
701.961,658.652,181996
701.908,657.574,182121
701.855,656.496,182754
701.801,655.418,182977
701.748,654.34,182786
701.695,653.262,182531
701.642,652.184,182471
701.589,651.105,182348
701.536,650.026,182827
701.483,648.947,183123
701.43,647.868,182491
701.377,646.789,182949
701.324,645.71,182420
701.271,644.63,183076
701.217,643.55,182926
701.164,642.47,182985
701.111,641.39,183409
701.058,640.31,183756
701.005,639.23,183253
700.952,638.149,183288
700.899,637.069,184071
700.846,635.988,183861
700.793,634.907,183473
700.74,633.825,183765
700.686,632.744,183128
700.633,631.663,182743
700.58,630.581,183396
700.527,629.499,183648
700.474,628.417,183309
700.421,627.335,183250
700.368,626.252,183048
700.315,625.17,183892
700.262,624.087,184516
700.209,623.004,183584
700.156,621.921,183131
700.102,620.838,183247
700.049,619.755,183907
699.996,618.671,183505
699.943,617.588,183003
699.89,616.504,182936
699.837,615.42,183516
699.784,614.336,183980
699.731,613.251,183585
699.678,612.167,184121
699.625,611.082,183505
699.571,609.997,183470
699.518,608.912,183502
699.465,607.827,182903
699.412,606.742,182421
699.359,605.657,182866
699.306,604.571,183014
699.253,603.485,182711
699.2,602.399,183119
699.147,601.313,182218
699.094,600.227,182792
699.041,599.14,182946
698.987,598.054,183176
698.934,596.967,183047
698.881,595.88,183306
698.828,594.793,183928
698.775,593.705,182496
698.722,592.618,183986
698.669,591.53,183262
698.616,590.443,183025
698.563,589.355,182769
698.51,588.266,183024
698.456,587.178,183969
698.403,586.09,183279
698.35,585.001,182618
698.297,583.912,183829
698.244,582.823,183480
698.191,581.734,182720
698.138,580.645,183042
698.085,579.556,183540
698.032,578.466,183461
697.979,577.376,182978
697.926,576.286,183476
697.872,575.196,183774
697.819,574.106,183661
697.766,573.015,184209
697.713,571.925,182903
697.66,570.834,183884
697.607,569.743,183874
697.554,568.652,183611
697.501,567.561,184337
697.448,566.469,183898
697.395,565.378,184170
697.341,564.286,183449
697.288,563.194,183176
697.235,562.102,183684
697.182,561.01,183158
697.129,559.917,183995
697.076,558.825,183388
697.023,557.732,183080
696.97,556.639,183759
696.917,555.546,183454
696.864,554.453,183661
696.811,553.359,183788
696.757,552.266,182874
696.704,551.172,183702
696.651,550.078,183527
696.598,548.984,183168
696.545,547.889,182763
696.492,546.795,183352
696.439,545.7,183832
696.386,544.606,183398
696.333,543.511,183934
696.28,542.416,183465
696.226,541.32,184344
696.173,540.225,183590
696.12,539.129,184429
696.067,538.034,184063
696.014,536.938,184294
695.961,535.842,183635
695.908,534.745,184112
695.855,533.649,183707
695.802,532.552,183931
695.749,531.455,182814
695.696,530.359,184183
695.642,529.261,184695
695.589,528.164,184074
695.536,527.067,183575
695.483,525.969,184119
695.43,524.871,184306
695.377,523.773,183781
695.324,522.675,184553
695.271,521.577,183563
695.218,520.479,184374
695.165,519.38,184087
695.111,518.281,184164
695.058,517.182,184399
695.005,516.083,184244
694.952,514.984,183902
694.899,513.884,184630
694.846,512.785,183563
694.793,511.685,184366
694.74,510.585,183550
694.687,509.485,183838
694.634,508.385,183705
694.581,507.284,183682
694.527,506.183,184040
694.474,505.083,184767
694.421,503.982,183492
694.368,502.881,183919
694.315,501.779,183226
694.262,500.678,183795
694.209,499.576,184024
694.156,498.474,183771
694.103,497.372,183855
694.05,496.27,184638
693.997,495.168,184410
693.943,494.065,184367
693.89,492.963,183700
693.837,491.86,183486
693.784,490.757,184081
693.731,489.654,184873
693.678,488.55,184010
693.625,487.447,184668
693.572,486.343,184447
693.519,485.239,184392
693.466,484.135,184408
693.412,483.031,184435
693.359,481.927,184359
693.306,480.822,184115
693.253,479.718,184169
693.2,478.613,183932
693.147,477.508,184099
693.094,476.403,184377
693.041,475.297,184517
692.988,474.192,184963
692.935,473.086,184829
692.882,471.98,183869
692.828,470.874,183630
692.775,469.768,183612
692.722,468.662,185142
692.669,467.555,184094
692.616,466.448,185004
692.563,465.342,184519
692.51,464.234,184838
692.457,463.127,184061
692.404,462.02,185123
692.351,460.912,185089
692.297,459.805,184305
692.244,458.697,184655
692.191,457.589,183831
692.138,456.48,184128
692.085,455.372,184278
692.032,454.263,183619
691.979,453.155,184338
691.926,452.046,184525
691.873,450.937,184891
691.82,449.827,185544
691.767,448.718,184595
691.713,447.608,184180
691.66,446.498,184327
691.607,445.389,184524
691.554,444.278,184868
691.501,443.168,184105
691.448,442.058,184759
691.395,440.947,184804
691.342,439.836,184568
691.289,438.725,184138
691.236,437.614,185183
691.182,436.503,184577
691.129,435.391,184938
691.076,434.28,184868
691.023,433.168,184412
690.97,432.056,184519
690.917,430.944,185099
690.864,429.831,184694
690.811,428.719,184731
690.758,427.606,184757
690.705,426.493,184755
690.652,425.38,185322
690.598,424.267,184768
690.545,423.154,184941
690.492,422.04,185005
690.439,420.927,184885
690.386,419.813,184932
690.333,418.699,184797
690.28,417.584,184461
690.227,416.47,185074
690.174,415.356,185835
690.121,414.241,184848
690.067,413.126,185299
690.014,412.011,185411
689.961,410.896,184777
689.908,409.78,185728
689.855,408.665,185608
689.802,407.549,184657
689.749,406.433,184528
689.696,405.317,185444
689.643,404.2,184235
689.59,403.084,184961
689.537,401.967,184631
689.483,400.851,183686
689.43,399.734,185229
689.377,398.617,184895
689.324,397.499,184743
689.271,396.382,184245
689.218,395.264,184834
689.165,394.146,185319
689.112,393.028,185163
689.059,391.91,185266
689.006,390.792,185035
688.952,389.673,185337
688.899,388.555,184795
688.846,387.436,184977
688.793,386.317,184463
688.74,385.197,184677
688.687,384.078,185048
688.634,382.958,184214
688.581,381.839,185249
688.528,380.719,184781
688.475,379.599,184720
688.422,378.479,184218
688.368,377.358,183384
688.315,376.238,183108
688.262,375.117,183549
688.209,373.996,183644
688.156,372.875,183313
688.103,371.754,182795
688.05,370.632,182258
687.997,369.51,181875
687.944,368.389,182307
702.12,661.884,182190
702.067,660.806,183569
702.014,659.729,183800
701.961,658.652,183899
701.908,657.574,183579
701.855,656.496,183459
701.801,655.418,184171
701.748,654.34,183690
701.695,653.262,184198
701.642,652.184,184079
701.589,651.105,183874
701.536,650.026,184181
701.483,648.947,184082
701.43,647.868,184065
701.377,646.789,184026
701.324,645.71,184424
701.271,644.63,184041
701.217,643.55,183780
701.164,642.47,184034
701.111,641.39,184600
701.058,640.31,184227
701.005,639.23,184344
700.952,638.149,184429
700.899,637.069,184293
700.846,635.988,184116
700.793,634.907,184389
700.74,633.825,184500
700.686,632.744,185482
700.633,631.663,184828
700.58,630.581,183964
700.527,629.499,184510
700.474,628.417,184020
700.421,627.335,184593
700.368,626.252,184337
700.315,625.17,184069
700.262,624.087,184521
700.209,623.004,184296
700.156,621.921,184488
700.102,620.838,184854
700.049,619.755,184556
699.996,618.671,185065
699.943,617.588,183902
699.89,616.504,183901
699.837,615.42,184115
699.784,614.336,184867
699.731,613.251,184692
699.678,612.167,183656
699.625,611.082,184429
699.571,609.997,184719
699.518,608.912,184417
699.465,607.827,184039
699.412,606.742,184472
699.359,605.657,183479
699.306,604.571,184712
699.253,603.485,184240
699.2,602.399,183756
699.147,601.313,184412
699.094,600.227,184196
699.041,599.14,184507
698.987,598.054,184211
698.934,596.967,184477
698.881,595.88,184323
698.828,594.793,184814
698.775,593.705,183890
698.722,592.618,183935
698.669,591.53,184316
698.616,590.443,185139
698.563,589.355,184469
698.51,588.266,184988
698.456,587.178,183837
698.403,586.09,184283
698.35,585.001,185476
698.297,583.912,184798
698.244,582.823,183252
698.191,581.734,184324
698.138,580.645,184987
698.085,579.556,184302
698.032,578.466,184271
697.979,577.376,183974
697.926,576.286,184451
697.872,575.196,183737
697.819,574.106,184640
697.766,573.015,184118
697.713,571.925,184931
697.66,570.834,184196
697.607,569.743,183919
697.554,568.652,184395
697.501,567.561,185142
697.448,566.469,184954
697.395,565.378,184881
697.341,564.286,184483
697.288,563.194,183791
697.235,562.102,184885
697.182,561.01,184922
697.129,559.917,184193
697.076,558.825,184736
697.023,557.732,184990
696.97,556.639,185091
696.917,555.546,184386
696.864,554.453,184739
696.811,553.359,184860
696.757,552.266,183555
696.704,551.172,183949
696.651,550.078,184999
696.598,548.984,184619
696.545,547.889,184519
696.492,546.795,184399
696.439,545.7,184580
696.386,544.606,184439
696.333,543.511,184251
696.28,542.416,184272
696.226,541.32,185153
696.173,540.225,184846
696.12,539.129,185394
696.067,538.034,183722
696.014,536.938,185879
695.961,535.842,184819
695.908,534.745,184943
695.855,533.649,184479
695.802,532.552,185071
695.749,531.455,184601
695.696,530.359,185835
695.642,529.261,184603
695.589,528.164,184502
695.536,527.067,184742
695.483,525.969,183479
695.43,524.871,184300
695.377,523.773,184517
695.324,522.675,184581
695.271,521.577,185654
695.218,520.479,184950
695.165,519.38,185865
695.111,518.281,185177
695.058,517.182,185854
695.005,516.083,184872
694.952,514.984,185450
694.899,513.884,184520
694.846,512.785,184676
694.793,511.685,185081
694.74,510.585,184926
694.687,509.485,185386
694.634,508.385,184901
694.581,507.284,185150
694.527,506.183,184423
694.474,505.083,184332
694.421,503.982,184716
694.368,502.881,185454
694.315,501.779,185781
694.262,500.678,185390
694.209,499.576,185153
694.156,498.474,185527
694.103,497.372,184981
694.05,496.27,185135
693.997,495.168,184578
693.943,494.065,185734
693.89,492.963,184662
693.837,491.86,185876
693.784,490.757,184975
693.731,489.654,185467
693.678,488.55,185300
693.625,487.447,185616
693.572,486.343,185069
693.519,485.239,184722
693.466,484.135,184732
693.412,483.031,185150
693.359,481.927,185558
693.306,480.822,185379
693.253,479.718,185315
693.2,478.613,185489
693.147,477.508,184751
693.094,476.403,185363
693.041,475.297,185890
692.988,474.192,185275
692.935,473.086,185115
692.882,471.98,185666
692.828,470.874,185822
692.775,469.768,185195
692.722,468.662,185059
692.669,467.555,185217
692.616,466.448,185956
692.563,465.342,185320
692.51,464.234,186423
692.457,463.127,184995
692.404,462.02,184904
692.351,460.912,185203
692.297,459.805,184689
692.244,458.697,185348
692.191,457.589,185883
692.138,456.48,185519
692.085,455.372,185822
692.032,454.263,184876
691.979,453.155,185363
691.926,452.046,186005
691.873,450.937,185080
691.82,449.827,186493
691.767,448.718,185479
691.713,447.608,184990
691.66,446.498,185570
691.607,445.389,185997
691.554,444.278,185694
691.501,443.168,185198
691.448,442.058,186409
691.395,440.947,186040
691.342,439.836,185818
691.289,438.725,186352
691.236,437.614,185185
691.182,436.503,185604
691.129,435.391,186077
691.076,434.28,186298
691.023,433.168,185252
690.97,432.056,186657
690.917,430.944,185580
690.864,429.831,186240
690.811,428.719,185262
690.758,427.606,186105
690.705,426.493,185299
690.652,425.38,185132
690.598,424.267,185497
690.545,423.154,186449
690.492,422.04,185955
690.439,420.927,185813
690.386,419.813,185911
690.333,418.699,186413
690.28,417.584,185638
690.227,416.47,185705
690.174,415.356,185775
690.121,414.241,185752
690.067,413.126,185959
690.014,412.011,185596
689.961,410.896,186294
689.908,409.78,186478
689.855,408.665,187018
689.802,407.549,186906
689.749,406.433,185847
689.696,405.317,185557
689.643,404.2,185807
689.59,403.084,185912
689.537,401.967,185722
689.483,400.851,185955
689.43,399.734,185867
689.377,398.617,186634
689.324,397.499,185619
689.271,396.382,185964
689.218,395.264,185529
689.165,394.146,186723
689.112,393.028,185315
689.059,391.91,185465
689.006,390.792,185360
688.952,389.673,186356
688.899,388.555,186520
688.846,387.436,185795
688.793,386.317,185280
688.74,385.197,186331
688.687,384.078,185943
688.634,382.958,186118
688.581,381.839,185661
688.528,380.719,185856
688.475,379.599,185533
688.422,378.479,185520
688.368,377.358,185425
688.315,376.238,185311
688.262,375.117,184841
688.209,373.996,183882
688.156,372.875,184875
688.103,371.754,183278
688.05,370.632,183411
687.997,369.51,183042
687.944,368.389,182492
702.12,661.884,190631
702.067,660.806,190811
702.014,659.729,190661
701.961,658.652,191362
701.908,657.574,191443
701.855,656.496,191470
701.801,655.418,191622
701.748,654.34,191190
701.695,653.262,191239
701.642,652.184,190626
701.589,651.105,191334
701.536,650.026,190550
701.483,648.947,191646
701.43,647.868,190704
701.377,646.789,191532
701.324,645.71,191773
701.271,644.63,191089
701.217,643.55,191411
701.164,642.47,191114
701.111,641.39,191934
701.058,640.31,191867
701.005,639.23,191148
700.952,638.149,191369
700.899,637.069,191811
700.846,635.988,191640
700.793,634.907,191671
700.74,633.825,191379
700.686,632.744,192094
700.633,631.663,192075
700.58,630.581,191838
700.527,629.499,191497
700.474,628.417,191985
700.421,627.335,192241
700.368,626.252,191866
700.315,625.17,191760
700.262,624.087,191502
700.209,623.004,190693
700.156,621.921,191821
700.102,620.838,191908
700.049,619.755,191887
699.996,618.671,191513
699.943,617.588,191540
699.89,616.504,191632
699.837,615.42,191958
699.784,614.336,191787
699.731,613.251,191070
699.678,612.167,191790
699.625,611.082,190802
699.571,609.997,192285
699.518,608.912,190883
699.465,607.827,191441
699.412,606.742,191744
699.359,605.657,191679
699.306,604.571,192355
699.253,603.485,191517
699.2,602.399,190424
699.147,601.313,192115
699.094,600.227,191700
699.041,599.14,191893
698.987,598.054,192505
698.934,596.967,190720
698.881,595.88,192235
698.828,594.793,191001
698.775,593.705,191247
698.722,592.618,191493
698.669,591.53,191338
698.616,590.443,191375
698.563,589.355,191528
698.51,588.266,191589
698.456,587.178,191701
698.403,586.09,192084
698.35,585.001,191984
698.297,583.912,190991
698.244,582.823,191905
698.191,581.734,191804
698.138,580.645,191169
698.085,579.556,191574
698.032,578.466,192298
697.979,577.376,191883
697.926,576.286,192522
697.872,575.196,191705
697.819,574.106,191168
697.766,573.015,191047
697.713,571.925,191317
697.66,570.834,191720
697.607,569.743,192058
697.554,568.652,191665
697.501,567.561,191987
697.448,566.469,191934
697.395,565.378,192553
697.341,564.286,191079
697.288,563.194,191971
697.235,562.102,192315
697.182,561.01,192129
697.129,559.917,191781
697.076,558.825,192078
697.023,557.732,191693
696.97,556.639,192024
696.917,555.546,191767
696.864,554.453,190972
696.811,553.359,191256
696.757,552.266,191166
696.704,551.172,191631
696.651,550.078,192692
696.598,548.984,191537
696.545,547.889,191558
696.492,546.795,191646
696.439,545.7,191543
696.386,544.606,192373
696.333,543.511,191411
696.28,542.416,192500
696.226,541.32,192412
696.173,540.225,191905
696.12,539.129,191732
696.067,538.034,192108
696.014,536.938,191934
695.961,535.842,192232
695.908,534.745,192815
695.855,533.649,191941
695.802,532.552,191620
695.749,531.455,192463
695.696,530.359,191845
695.642,529.261,192173
695.589,528.164,192014
695.536,527.067,192286
695.483,525.969,191993
695.43,524.871,192147
695.377,523.773,192714
695.324,522.675,191797
695.271,521.577,192019
695.218,520.479,192352
695.165,519.38,192070
695.111,518.281,192340
695.058,517.182,192268
695.005,516.083,192280
694.952,514.984,192962
694.899,513.884,193337
694.846,512.785,192280
694.793,511.685,192408
694.74,510.585,192761
694.687,509.485,192247
694.634,508.385,192019
694.581,507.284,192463
694.527,506.183,192619
694.474,505.083,192071
694.421,503.982,191849
694.368,502.881,193372
694.315,501.779,192192
694.262,500.678,192430
694.209,499.576,193096
694.156,498.474,191896
694.103,497.372,192939
694.05,496.27,192746
693.997,495.168,192006
693.943,494.065,193104
693.89,492.963,192209
693.837,491.86,192365
693.784,490.757,192149
693.731,489.654,193256
693.678,488.55,192347
693.625,487.447,192703
693.572,486.343,192508
693.519,485.239,192939
693.466,484.135,191445
693.412,483.031,192746
693.359,481.927,192970
693.306,480.822,193307
693.253,479.718,192031
693.2,478.613,192426
693.147,477.508,192322
693.094,476.403,192609
693.041,475.297,192704
692.988,474.192,192703
692.935,473.086,192437
692.882,471.98,193121
692.828,470.874,192643
692.775,469.768,192874
692.722,468.662,192847
692.669,467.555,193523
692.616,466.448,193306
692.563,465.342,192662
692.51,464.234,193211
692.457,463.127,193439
692.404,462.02,192891
692.351,460.912,193148
692.297,459.805,192161
692.244,458.697,192492
692.191,457.589,193410
692.138,456.48,192824
692.085,455.372,192964
692.032,454.263,192809
691.979,453.155,192153
691.926,452.046,193210
691.873,450.937,192779
691.82,449.827,192278
691.767,448.718,192952
691.713,447.608,193119
691.66,446.498,192531
691.607,445.389,193726
691.554,444.278,192891
691.501,443.168,192638
691.448,442.058,193229
691.395,440.947,192986
691.342,439.836,193376
691.289,438.725,193482
691.236,437.614,193301
691.182,436.503,192595
691.129,435.391,193158
691.076,434.28,193164
691.023,433.168,193470
690.97,432.056,193317
690.917,430.944,193442
690.864,429.831,193537
690.811,428.719,193094
690.758,427.606,192887
690.705,426.493,193496
690.652,425.38,192646
690.598,424.267,192690
690.545,423.154,193721
690.492,422.04,193782
690.439,420.927,192912
690.386,419.813,194143
690.333,418.699,194366
690.28,417.584,193440
690.227,416.47,193551
690.174,415.356,193819
690.121,414.241,193243
690.067,413.126,193462
690.014,412.011,193259
689.961,410.896,192909
689.908,409.78,192990
689.855,408.665,194105
689.802,407.549,192958
689.749,406.433,193271
689.696,405.317,193294
689.643,404.2,193508
689.59,403.084,192525
689.537,401.967,193041
689.483,400.851,192661
689.43,399.734,193566
689.377,398.617,193147
689.324,397.499,194149
689.271,396.382,193468
689.218,395.264,192880
689.165,394.146,193717
689.112,393.028,193667
689.059,391.91,194554
689.006,390.792,192727
688.952,389.673,194002
688.899,388.555,192902
688.846,387.436,193425
688.793,386.317,193376
688.74,385.197,192705
688.687,384.078,193303
688.634,382.958,193695
688.581,381.839,192808
688.528,380.719,193206
688.475,379.599,194093
688.422,378.479,191911
688.368,377.358,192877
688.315,376.238,191836
688.262,375.117,192211
688.209,373.996,191764
688.156,372.875,191403
688.103,371.754,191080
688.05,370.632,189922
687.997,369.51,190376
687.944,368.389,190789
702.12,661.884,187388
702.067,660.806,188066
702.014,659.729,188222
701.961,658.652,188100
701.908,657.574,188039
701.855,656.496,188073
701.801,655.418,188333
701.748,654.34,189713
701.695,653.262,188824
701.642,652.184,188595
701.589,651.105,188591
701.536,650.026,188521
701.483,648.947,189227
701.43,647.868,188824
701.377,646.789,189372
701.324,645.71,188732
701.271,644.63,188045
701.217,643.55,189178
701.164,642.47,188756
701.111,641.39,189420
701.058,640.31,188525
701.005,639.23,188766
700.952,638.149,188002
700.899,637.069,189028
700.846,635.988,189667
700.793,634.907,189531
700.74,633.825,188334
700.686,632.744,189236
700.633,631.663,189407
700.58,630.581,188734
700.527,629.499,189239
700.474,628.417,189386
700.421,627.335,189199
700.368,626.252,189611
700.315,625.17,189868
700.262,624.087,188845
700.209,623.004,189153
700.156,621.921,189975
700.102,620.838,189511
700.049,619.755,188925
699.996,618.671,189409
699.943,617.588,188693
699.89,616.504,189251
699.837,615.42,189707
699.784,614.336,189496
699.731,613.251,189089
699.678,612.167,189862
699.625,611.082,189208
699.571,609.997,189306
699.518,608.912,188308
699.465,607.827,189509
699.412,606.742,188573
699.359,605.657,189097
699.306,604.571,190617
699.253,603.485,189052
699.2,602.399,188568
699.147,601.313,189615
699.094,600.227,189263
699.041,599.14,188748
698.987,598.054,189353
698.934,596.967,188830
698.881,595.88,189678
698.828,594.793,189267
698.775,593.705,188825
698.722,592.618,189209
698.669,591.53,189117
698.616,590.443,189920
698.563,589.355,189737
698.51,588.266,189061
698.456,587.178,189549
698.403,586.09,188800
698.35,585.001,189246
698.297,583.912,189751
698.244,582.823,189225
698.191,581.734,189036
698.138,580.645,189345
698.085,579.556,188968
698.032,578.466,189276
697.979,577.376,188172
697.926,576.286,188815
697.872,575.196,189015
697.819,574.106,189076
697.766,573.015,190167
697.713,571.925,189752
697.66,570.834,189716
697.607,569.743,188925
697.554,568.652,188965
697.501,567.561,189363
697.448,566.469,188993
697.395,565.378,189332
697.341,564.286,189629
697.288,563.194,188608
697.235,562.102,189275
697.182,561.01,188881
697.129,559.917,189364
697.076,558.825,189633
697.023,557.732,189091
696.97,556.639,188979
696.917,555.546,190029
696.864,554.453,189252
696.811,553.359,189211
696.757,552.266,189341
696.704,551.172,188967
696.651,550.078,189386
696.598,548.984,189400
696.545,547.889,189159
696.492,546.795,189322
696.439,545.7,189799
696.386,544.606,190421
696.333,543.511,189402
696.28,542.416,189061
696.226,541.32,189732
696.173,540.225,189595
696.12,539.129,190128
696.067,538.034,189456
696.014,536.938,189885
695.961,535.842,189963
695.908,534.745,189596
695.855,533.649,189658
695.802,532.552,190217
695.749,531.455,189060
695.696,530.359,189709
695.642,529.261,189129
695.589,528.164,189153
695.536,527.067,189479
695.483,525.969,189284
695.43,524.871,188967
695.377,523.773,189959
695.324,522.675,189774
695.271,521.577,190203
695.218,520.479,188950
695.165,519.38,190204
695.111,518.281,189735
695.058,517.182,189893
695.005,516.083,189350
694.952,514.984,190080
694.899,513.884,190059
694.846,512.785,190302
694.793,511.685,190132
694.74,510.585,190207
694.687,509.485,189405
694.634,508.385,190425
694.581,507.284,189332
694.527,506.183,190240
694.474,505.083,189953
694.421,503.982,189113
694.368,502.881,189989
694.315,501.779,190426
694.262,500.678,188784
694.209,499.576,189160
694.156,498.474,190240
694.103,497.372,190067
694.05,496.27,189918
693.997,495.168,190037
693.943,494.065,189590
693.89,492.963,189924
693.837,491.86,190395
693.784,490.757,191026
693.731,489.654,190457
693.678,488.55,190174
693.625,487.447,189871
693.572,486.343,189893
693.519,485.239,190040
693.466,484.135,189750
693.412,483.031,190564
693.359,481.927,190290
693.306,480.822,190140
693.253,479.718,190619
693.2,478.613,190363
693.147,477.508,190982
693.094,476.403,190113
693.041,475.297,190015
692.988,474.192,190261
692.935,473.086,189602
692.882,471.98,189728
692.828,470.874,189994
692.775,469.768,190099
692.722,468.662,190304
692.669,467.555,189363
692.616,466.448,190774
692.563,465.342,190527
692.51,464.234,190005
692.457,463.127,190269
692.404,462.02,190362
692.351,460.912,190020
692.297,459.805,189794
692.244,458.697,190659
692.191,457.589,190833
692.138,456.48,190509
692.085,455.372,191760
692.032,454.263,189646
691.979,453.155,190331
691.926,452.046,190774
691.873,450.937,190817
691.82,449.827,190506
691.767,448.718,190157
691.713,447.608,190118
691.66,446.498,190722
691.607,445.389,190108
691.554,444.278,189875
691.501,443.168,190500
691.448,442.058,190484
691.395,440.947,191295
691.342,439.836,189341
691.289,438.725,190695
691.236,437.614,190469
691.182,436.503,190000
691.129,435.391,190348
691.076,434.28,190511
691.023,433.168,190502
690.97,432.056,190859
690.917,430.944,190995
690.864,429.831,191114
690.811,428.719,190406
690.758,427.606,190980
690.705,426.493,192023
690.652,425.38,191257
690.598,424.267,191232
690.545,423.154,190781
690.492,422.04,190970
690.439,420.927,190586
690.386,419.813,191488
690.333,418.699,191312
690.28,417.584,190527
690.227,416.47,191604
690.174,415.356,190678
690.121,414.241,191116
690.067,413.126,190627
690.014,412.011,190910
689.961,410.896,190395
689.908,409.78,190553
689.855,408.665,191591
689.802,407.549,190466
689.749,406.433,190730
689.696,405.317,190317
689.643,404.2,191401
689.59,403.084,190231
689.537,401.967,190505
689.483,400.851,190326
689.43,399.734,190704
689.377,398.617,191316
689.324,397.499,190324
689.271,396.382,190718
689.218,395.264,191104
689.165,394.146,191215
689.112,393.028,190798
689.059,391.91,191080
689.006,390.792,190867
688.952,389.673,191492
688.899,388.555,191320
688.846,387.436,190650
688.793,386.317,191103
688.74,385.197,190787
688.687,384.078,191456
688.634,382.958,191256
688.581,381.839,191323
688.528,380.719,190741
688.475,379.599,189690
688.422,378.479,189928
688.368,377.358,191004
688.315,376.238,189655
688.262,375.117,189219
688.209,373.996,189283
688.156,372.875,189325
688.103,371.754,188457
688.05,370.632,188246
687.997,369.51,187984
687.944,368.389,187328
687.901,367.491,187130