File: tomke/20240809/raw_data/Si_onTiO2_60mA_30mW_30sec_5acc_517nm.txt
Wavelength(nm), Raman shift(cm^-1), Intensity(counts)
525.364,-194.586,72030
525.301,-196.846,72571
525.239,-199.106,72445
525.177,-201.367,72444
525.114,-203.629,72532
525.052,-205.891,72543
524.99,-208.154,72644
524.927,-210.417,72686
524.865,-212.681,72855
524.802,-214.945,72866
524.74,-217.21,72702
524.678,-219.475,73047
524.615,-221.741,73006
524.553,-224.008,72936
524.491,-226.275,73106
524.428,-228.542,73082
524.366,-230.81,73194
524.304,-233.079,73294
524.241,-235.348,73692
524.179,-237.618,73727
524.116,-239.888,73514
524.054,-242.159,73858
523.992,-244.43,73475
523.929,-246.702,73586
523.867,-248.974,73710
523.805,-251.247,74380
523.742,-253.52,74711
523.68,-255.794,75071
523.617,-258.069,75050
523.555,-260.344,76626
523.493,-262.62,78167
523.43,-264.896,79957
523.368,-267.173,82728
523.306,-269.45,86527
523.243,-271.728,91331
523.181,-274.006,96597
523.119,-276.285,101450
523.056,-278.564,106902
522.994,-280.844,110777
522.931,-283.125,113997
522.869,-285.406,116821
522.807,-287.688,118529
522.744,-289.97,119489
522.682,-292.252,120873
522.62,-294.536,121000
522.557,-296.82,121802
522.495,-299.104,121046
522.432,-301.389,121144
522.37,-303.674,121463
522.308,-305.96,121318
522.245,-308.247,121374
522.183,-310.534,121567
522.121,-312.821,120627
522.058,-315.11,120655
521.996,-317.398,120698
521.933,-319.687,119532
521.871,-321.977,119862
521.809,-324.268,118939
521.746,-326.559,119891
521.684,-328.85,119493
521.622,-331.142,119111
521.559,-333.434,118898
521.497,-335.728,118786
521.435,-338.021,118858
521.372,-340.315,118468
521.31,-342.61,117766
521.247,-344.905,118507
521.185,-347.201,118004
521.123,-349.498,117842
521.06,-351.795,117467
520.998,-354.092,117642
520.936,-356.39,117847
520.873,-358.689,116907
520.811,-360.988,116286
520.748,-363.287,116320
520.686,-365.588,115817
520.624,-367.889,115605
520.561,-370.19,115105
520.499,-372.492,114878
520.437,-374.794,114794
520.374,-377.097,115187
520.312,-379.401,115043
520.249,-381.705,114483
520.187,-384.009,114488
520.125,-386.315,113990
520.062,-388.62,113801
520.0,-390.927,113968
519.938,-393.234,113870
519.875,-395.541,113949
519.813,-397.849,113351
519.751,-400.158,112655
519.688,-402.467,113120
519.626,-404.776,112724
519.563,-407.086,112430
519.501,-409.397,112372
519.439,-411.708,112582
519.376,-414.02,112412
519.314,-416.333,111290
519.252,-418.646,111302
519.189,-420.959,111070
519.127,-423.273,110441
519.064,-425.588,110191
519.002,-427.903,109637
518.94,-430.219,109846
518.877,-432.535,109225
518.815,-434.852,108821
518.753,-437.169,108802
518.69,-439.487,108333
518.628,-441.806,108426
518.565,-444.125,108093
518.503,-446.445,107961
518.441,-448.765,107919
518.378,-451.086,108278
518.316,-453.407,107154
518.254,-455.729,107847
518.191,-458.051,107205
518.129,-460.374,107624
518.067,-462.698,107811
518.004,-465.022,107330
517.942,-467.347,106749
517.879,-469.672,106704
517.817,-471.998,106634
517.755,-474.324,107411
517.692,-476.651,107361
517.63,-478.978,106540
517.568,-481.306,106000
517.505,-483.635,107019
517.443,-485.964,107024
517.38,-488.294,107673
517.318,-490.624,108652
517.256,-492.955,109860
517.193,-495.286,112162
517.131,-497.618,113170
517.069,-499.951,114069
517.006,-502.284,113350
516.944,-504.618,111117
516.881,-506.952,109283
516.819,-509.287,107968
516.757,-511.622,106517
516.694,-513.958,105826
516.632,-516.294,104949
516.57,-518.631,104876
516.507,-520.969,104600
516.445,-523.307,103780
516.383,-525.646,104224
516.32,-527.985,104104
516.258,-530.325,104271
516.195,-532.665,103623
516.133,-535.006,103643
516.071,-537.348,103795
516.008,-539.69,103819
515.946,-542.033,103003
515.884,-544.376,103212
515.821,-546.72,102725
515.759,-549.064,102728
515.696,-551.409,102261
515.634,-553.755,102876
515.572,-556.101,102460
515.509,-558.448,102128
515.447,-560.795,101971
515.385,-563.143,102170
515.322,-565.491,101684
515.26,-567.84,102476
515.198,-570.189,102019
515.135,-572.539,101429
515.073,-574.89,101312
515.01,-577.241,101688
514.948,-579.593,101453
514.886,-581.945,101453
514.823,-584.298,101778
514.761,-586.652,100923
514.699,-589.006,101209
514.636,-591.361,101312
514.574,-593.716,101309
514.511,-596.072,101238
514.449,-598.428,100911
514.387,-600.785,100684
514.324,-603.142,100619
514.262,-605.5,100496
514.2,-607.859,100334
514.137,-610.218,100134
514.075,-612.578,100074
514.012,-614.938,99960
513.95,-617.299,100078
513.888,-619.661,99620
513.825,-622.023,99289
513.763,-624.385,99469
513.701,-626.749,99028
513.638,-629.112,99332
513.576,-631.477,98925
513.514,-633.842,98440
513.451,-636.207,98884
513.389,-638.573,98657
513.326,-640.94,98655
513.264,-643.307,97850
513.202,-645.675,98085
513.139,-648.043,97935
513.077,-650.412,97908
513.015,-652.782,97373
512.952,-655.152,97439
512.89,-657.523,97254
512.827,-659.894,97845
512.765,-662.266,97636
512.703,-664.638,97030
512.64,-667.011,97109
512.578,-669.385,96901
512.516,-671.759,96551
512.453,-674.134,96304
512.391,-676.509,96276
512.328,-678.885,96163
512.266,-681.261,95958
512.204,-683.638,95726
512.141,-686.016,95472
512.079,-688.394,95191
512.017,-690.773,95197
511.954,-693.152,94896
511.892,-695.532,94942
511.83,-697.913,95133
511.767,-700.294,94668
511.705,-702.676,94491
511.642,-705.058,94416
511.58,-707.441,94064
511.518,-709.824,94186
511.455,-712.208,93848
511.393,-714.593,93803
511.331,-716.978,94053
511.268,-719.364,93611
511.206,-721.75,93361
511.143,-724.137,92781
511.081,-726.525,93575
511.019,-728.913,93173
510.956,-731.301,92681
510.894,-733.691,92474
510.832,-736.08,92888
510.769,-738.471,92511
510.707,-740.862,92237
510.644,-743.253,92165
510.582,-745.646,92033
510.52,-748.038,91809
510.457,-750.432,91953
510.395,-752.826,91671
510.333,-755.22,91443
510.27,-757.615,91279
510.208,-760.011,91310
510.146,-762.407,90590
510.083,-764.804,91091
510.021,-767.201,90817
509.958,-769.599,90603
509.896,-771.998,90344
509.834,-774.397,90358
509.771,-776.797,89981
509.709,-779.197,89885
509.647,-781.598,89831
509.584,-784,89647
509.522,-786.402,89426
509.459,-788.805,89348
509.397,-791.208,89092
509.335,-793.612,88958
509.272,-796.016,88636
509.21,-798.421,88755
509.148,-800.827,88448
509.085,-803.233,88452
509.023,-805.64,88473
508.96,-808.048,88206
508.898,-810.456,87754
508.836,-812.864,87898
508.773,-815.274,87872
508.711,-817.683,87798
525.364,-194.586,70579
525.301,-196.846,70860
525.239,-199.106,71001
525.177,-201.367,70828
525.114,-203.629,70997
525.052,-205.891,71128
524.99,-208.154,71163
524.927,-210.417,70747
524.865,-212.681,71242
524.802,-214.945,71357
524.74,-217.21,71256
524.678,-219.475,71431
524.615,-221.741,71363
524.553,-224.008,71490
524.491,-226.275,71824
524.428,-228.542,71562
524.366,-230.81,71333
524.304,-233.079,71398
524.241,-235.348,71665
524.179,-237.618,71641
524.116,-239.888,71628
524.054,-242.159,71714
523.992,-244.43,71942
523.929,-246.702,71862
523.867,-248.974,72033
523.805,-251.247,72238
523.742,-253.52,72492
523.68,-255.794,72714
523.617,-258.069,73517
523.555,-260.344,74068
523.493,-262.62,75234
523.43,-264.896,76812
523.368,-267.173,79242
523.306,-269.45,82277
523.243,-271.728,86170
523.181,-274.006,90287
523.119,-276.285,94355
523.056,-278.564,98176
522.994,-280.844,101632
522.931,-283.125,104282
522.869,-285.406,105937
522.807,-287.688,107986
522.744,-289.97,109297
522.682,-292.252,109294
522.62,-294.536,110094
522.557,-296.82,110083
522.495,-299.104,110155
522.432,-301.389,110332
522.37,-303.674,110074
522.308,-305.96,109715
522.245,-308.247,109783
522.183,-310.534,110268
522.121,-312.821,109297
522.058,-315.11,109735
521.996,-317.398,109149
521.933,-319.687,108858
521.871,-321.977,108867
521.809,-324.268,108377
521.746,-326.559,108010
521.684,-328.85,107938
521.622,-331.142,107839
521.559,-333.434,108270
521.497,-335.728,107626
521.435,-338.021,107799
521.372,-340.315,107229
521.31,-342.61,107296
521.247,-344.905,106852
521.185,-347.201,106907
521.123,-349.498,106861
521.06,-351.795,106884
520.998,-354.092,106227
520.936,-356.39,106353
520.873,-358.689,106189
520.811,-360.988,105370
520.748,-363.287,105660
520.686,-365.588,105462
520.624,-367.889,104865
520.561,-370.19,104288
520.499,-372.492,104621
520.437,-374.794,104090
520.374,-377.097,104343
520.312,-379.401,103943
520.249,-381.705,103784
520.187,-384.009,103500
520.125,-386.315,103671
520.062,-388.62,103477
520.0,-390.927,103343
519.938,-393.234,102664
519.875,-395.541,103055
519.813,-397.849,102972
519.751,-400.158,102853
519.688,-402.467,102384
519.626,-404.776,102779
519.563,-407.086,102408
519.501,-409.397,101860
519.439,-411.708,101560
519.376,-414.02,101624
519.314,-416.333,101491
519.252,-418.646,101304
519.189,-420.959,101132
519.127,-423.273,100717
519.064,-425.588,100296
519.002,-427.903,100153
518.94,-430.219,99620
518.877,-432.535,99589
518.815,-434.852,99104
518.753,-437.169,98824
518.69,-439.487,98735
518.628,-441.806,98249
518.565,-444.125,98159
518.503,-446.445,98180
518.441,-448.765,98776
518.378,-451.086,98181
518.316,-453.407,98246
518.254,-455.729,97983
518.191,-458.051,97880
518.129,-460.374,97625
518.067,-462.698,98192
518.004,-465.022,97627
517.942,-467.347,97343
517.879,-469.672,97590
517.817,-471.998,97745
517.755,-474.324,107427
517.692,-476.651,97422
517.63,-478.978,97255
517.568,-481.306,97874
517.505,-483.635,97504
517.443,-485.964,97855
517.38,-488.294,98179
517.318,-490.624,99392
517.256,-492.955,100918
517.193,-495.286,103003
517.131,-497.618,104314
517.069,-499.951,104557
517.006,-502.284,104716
516.944,-504.618,103031
516.881,-506.952,100488
516.819,-509.287,98891
516.757,-511.622,97881
516.694,-513.958,96480
516.632,-516.294,96578
516.57,-518.631,95854
516.507,-520.969,95577
516.445,-523.307,95183
516.383,-525.646,95596
516.32,-527.985,94913
516.258,-530.325,95044
516.195,-532.665,94636
516.133,-535.006,94747
516.071,-537.348,94762
516.008,-539.69,94548
515.946,-542.033,93977
515.884,-544.376,93988
515.821,-546.72,94098
515.759,-549.064,93900
515.696,-551.409,93854
515.634,-553.755,94143
515.572,-556.101,93580
515.509,-558.448,93529
515.447,-560.795,93481
515.385,-563.143,93458
515.322,-565.491,93488
515.26,-567.84,93795
515.198,-570.189,93179
515.135,-572.539,92915
515.073,-574.89,93136
515.01,-577.241,93323
514.948,-579.593,93139
514.886,-581.945,92749
514.823,-584.298,92836
514.761,-586.652,92895
514.699,-589.006,92784
514.636,-591.361,92999
514.574,-593.716,92722
514.511,-596.072,92627
514.449,-598.428,92579
514.387,-600.785,92641
514.324,-603.142,92741
514.262,-605.5,92110
514.2,-607.859,91728
514.137,-610.218,92225
514.075,-612.578,91659
514.012,-614.938,91969
513.95,-617.299,91518
513.888,-619.661,91357
513.825,-622.023,91466
513.763,-624.385,91402
513.701,-626.749,91231
513.638,-629.112,90881
513.576,-631.477,91165
513.514,-633.842,91131
513.451,-636.207,90882
513.389,-638.573,90461
513.326,-640.94,90347
513.264,-643.307,90566
513.202,-645.675,90004
513.139,-648.043,89877
513.077,-650.412,89928
513.015,-652.782,89952
512.952,-655.152,90118
512.89,-657.523,89678
512.827,-659.894,89529
512.765,-662.266,89548
512.703,-664.638,89347
512.64,-667.011,89365
512.578,-669.385,89389
512.516,-671.759,89080
512.453,-674.134,88945
512.391,-676.509,88960
512.328,-678.885,88654
512.266,-681.261,88943
512.204,-683.638,88622
512.141,-686.016,88097
512.079,-688.394,88190
512.017,-690.773,87977
511.954,-693.152,87979
511.892,-695.532,87979
511.83,-697.913,87749
511.767,-700.294,87516
511.705,-702.676,87658
511.642,-705.058,87018
511.58,-707.441,87234
511.518,-709.824,87484
511.455,-712.208,87018
511.393,-714.593,86471
511.331,-716.978,86775
511.268,-719.364,86718
511.206,-721.75,86468
511.143,-724.137,86430
511.081,-726.525,86491
511.019,-728.913,86033
510.956,-731.301,86110
510.894,-733.691,86242
510.832,-736.08,85974
510.769,-738.471,85897
510.707,-740.862,85784
510.644,-743.253,85403
510.582,-745.646,85422
510.52,-748.038,85439
510.457,-750.432,85375
510.395,-752.826,85266
510.333,-755.22,85279
510.27,-757.615,84912
510.208,-760.011,84704
510.146,-762.407,84669
510.083,-764.804,84556
510.021,-767.201,84286
509.958,-769.599,84492
509.896,-771.998,84012
509.834,-774.397,84111
509.771,-776.797,84098
509.709,-779.197,83815
509.647,-781.598,83669
509.584,-784,83534
509.522,-786.402,83782
509.459,-788.805,83109
509.397,-791.208,83368
509.335,-793.612,83368
509.272,-796.016,82954
509.21,-798.421,82971
509.148,-800.827,82715
509.085,-803.233,82503
509.023,-805.64,82653
508.96,-808.048,82777
508.898,-810.456,82308
508.836,-812.864,82018
508.773,-815.274,82275
508.711,-817.683,82183
525.364,-194.586,69055
525.301,-196.846,69509
525.239,-199.106,69267
525.177,-201.367,69296
525.114,-203.629,69555
525.052,-205.891,69300
524.99,-208.154,69587
524.927,-210.417,69699
524.865,-212.681,69447
524.802,-214.945,69392
524.74,-217.21,69641
524.678,-219.475,69584
524.615,-221.741,69663
524.553,-224.008,69736
524.491,-226.275,69771
524.428,-228.542,70006
524.366,-230.81,69921
524.304,-233.079,69891
524.241,-235.348,69835
524.179,-237.618,70261
524.116,-239.888,69930
524.054,-242.159,69988
523.992,-244.43,70100
523.929,-246.702,70347
523.867,-248.974,70660
523.805,-251.247,70480
523.742,-253.52,70792
523.68,-255.794,71063
523.617,-258.069,71354
523.555,-260.344,71912
523.493,-262.62,72738
523.43,-264.896,73979
523.368,-267.173,75735
523.306,-269.45,78411
523.243,-271.728,81070
523.181,-274.006,84506
523.119,-276.285,87707
523.056,-278.564,90813
522.994,-280.844,93287
522.931,-283.125,95434
522.869,-285.406,96905
522.807,-287.688,97604
522.744,-289.97,99454
522.682,-292.252,99573
522.62,-294.536,99599
522.557,-296.82,99655
522.495,-299.104,99936
522.432,-301.389,99550
522.37,-303.674,99898
522.308,-305.96,99460
522.245,-308.247,99583
522.183,-310.534,99516
522.121,-312.821,99270
522.058,-315.11,99038
521.996,-317.398,98849
521.933,-319.687,98467
521.871,-321.977,98885
521.809,-324.268,98634
521.746,-326.559,98027
521.684,-328.85,97713
521.622,-331.142,97854
521.559,-333.434,98177
521.497,-335.728,97319
521.435,-338.021,97338
521.372,-340.315,97813
521.31,-342.61,97454
521.247,-344.905,97220
521.185,-347.201,97363
521.123,-349.498,96667
521.06,-351.795,96598
520.998,-354.092,96541
520.936,-356.39,96617
520.873,-358.689,96369
520.811,-360.988,96265
520.748,-363.287,95388
520.686,-365.588,95671
520.624,-367.889,95646
520.561,-370.19,95301
520.499,-372.492,95332
520.437,-374.794,94825
520.374,-377.097,94775
520.312,-379.401,94763
520.249,-381.705,94216
520.187,-384.009,94024
520.125,-386.315,94106
520.062,-388.62,94197
520.0,-390.927,93757
519.938,-393.234,93905
519.875,-395.541,93493
519.813,-397.849,93968
519.751,-400.158,93361
519.688,-402.467,93326
519.626,-404.776,93276
519.563,-407.086,93321
519.501,-409.397,93243
519.439,-411.708,92925
519.376,-414.02,92622
519.314,-416.333,92054
519.252,-418.646,92371
519.189,-420.959,91927
519.127,-423.273,91765
519.064,-425.588,91385
519.002,-427.903,91081
518.94,-430.219,91005
518.877,-432.535,91260
518.815,-434.852,90860
518.753,-437.169,90654
518.69,-439.487,90541
518.628,-441.806,90471
518.565,-444.125,89910
518.503,-446.445,89866
518.441,-448.765,89753
518.378,-451.086,89975
518.316,-453.407,89496
518.254,-455.729,89120
518.191,-458.051,89905
518.129,-460.374,89799
518.067,-462.698,89751
518.004,-465.022,89266
517.942,-467.347,89194
517.879,-469.672,89535
517.817,-471.998,89018
517.755,-474.324,88848
517.692,-476.651,89268
517.63,-478.978,89194
517.568,-481.306,89569
517.505,-483.635,89590
517.443,-485.964,90051
517.38,-488.294,90465
517.318,-490.624,90907
517.256,-492.955,92551
517.193,-495.286,94095
517.131,-497.618,96515
517.069,-499.951,97237
517.006,-502.284,96843
516.944,-504.618,95047
516.881,-506.952,92942
516.819,-509.287,91195
516.757,-511.622,89815
516.694,-513.958,89230
516.632,-516.294,88468
516.57,-518.631,88609
516.507,-520.969,87944
516.445,-523.307,87708
516.383,-525.646,87259
516.32,-527.985,87137
516.258,-530.325,87151
516.195,-532.665,86926
516.133,-535.006,86980
516.071,-537.348,86677
516.008,-539.69,86781
515.946,-542.033,86392
515.884,-544.376,86699
515.821,-546.72,86396
515.759,-549.064,86263
515.696,-551.409,86046
515.634,-553.755,86066
515.572,-556.101,85814
515.509,-558.448,85890
515.447,-560.795,86195
515.385,-563.143,85816
515.322,-565.491,85853
515.26,-567.84,85887
515.198,-570.189,85908
515.135,-572.539,85640
515.073,-574.89,85368
515.01,-577.241,85498
514.948,-579.593,85339
514.886,-581.945,85662
514.823,-584.298,85523
514.761,-586.652,85415
514.699,-589.006,85164
514.636,-591.361,85116
514.574,-593.716,85280
514.511,-596.072,85151
514.449,-598.428,85574
514.387,-600.785,84949
514.324,-603.142,85280
514.262,-605.5,85058
514.2,-607.859,84989
514.137,-610.218,85122
514.075,-612.578,84739
514.012,-614.938,84472
513.95,-617.299,84586
513.888,-619.661,84523
513.825,-622.023,84410
513.763,-624.385,84085
513.701,-626.749,84458
513.638,-629.112,83976
513.576,-631.477,84147
513.514,-633.842,83919
513.451,-636.207,83439
513.389,-638.573,83976
513.326,-640.94,83336
513.264,-643.307,83400
513.202,-645.675,83116
513.139,-648.043,83552
513.077,-650.412,83569
513.015,-652.782,83182
512.952,-655.152,83171
512.89,-657.523,83179
512.827,-659.894,82799
512.765,-662.266,82942
512.703,-664.638,82606
512.64,-667.011,82565
512.578,-669.385,82627
512.516,-671.759,82470
512.453,-674.134,82633
512.391,-676.509,82306
512.328,-678.885,82530
512.266,-681.261,82295
512.204,-683.638,82230
512.141,-686.016,81681
512.079,-688.394,81721
512.017,-690.773,81738
511.954,-693.152,81326
511.892,-695.532,81475
511.83,-697.913,81503
511.767,-700.294,81566
511.705,-702.676,81395
511.642,-705.058,80733
511.58,-707.441,81083
511.518,-709.824,80956
511.455,-712.208,81282
511.393,-714.593,80630
511.331,-716.978,80522
511.268,-719.364,80712
511.206,-721.75,80651
511.143,-724.137,80440
511.081,-726.525,80270
511.019,-728.913,80462
510.956,-731.301,80205
510.894,-733.691,80156
510.832,-736.08,80007
510.769,-738.471,79994
510.707,-740.862,80247
510.644,-743.253,79958
510.582,-745.646,79913
510.52,-748.038,79604
510.457,-750.432,79597
510.395,-752.826,79297
510.333,-755.22,79353
510.27,-757.615,79341
510.208,-760.011,78920
510.146,-762.407,79093
510.083,-764.804,78852
510.021,-767.201,78528
509.958,-769.599,78734
509.896,-771.998,78772
509.834,-774.397,78446
509.771,-776.797,78453
509.709,-779.197,78520
509.647,-781.598,78411
509.584,-784,78284
509.522,-786.402,78020
509.459,-788.805,77871
509.397,-791.208,77768
509.335,-793.612,77836
509.272,-796.016,77847
509.21,-798.421,77900
509.148,-800.827,77604
509.085,-803.233,77688
509.023,-805.64,77456
508.96,-808.048,77781
508.898,-810.456,77125
508.836,-812.864,77482
508.773,-815.274,76952
508.711,-817.683,77053
525.364,-194.586,69036
525.301,-196.846,69431
525.239,-199.106,69166
525.177,-201.367,69410
525.114,-203.629,69512
525.052,-205.891,69567
524.99,-208.154,69368
524.927,-210.417,69633
524.865,-212.681,69705
524.802,-214.945,69744
524.74,-217.21,69751
524.678,-219.475,69854
524.615,-221.741,69750
524.553,-224.008,69747
524.491,-226.275,70125
524.428,-228.542,69736
524.366,-230.81,69884
524.304,-233.079,70065
524.241,-235.348,69769
524.179,-237.618,70033
524.116,-239.888,69860
524.054,-242.159,70147
523.992,-244.43,70226
523.929,-246.702,70021
523.867,-248.974,70319
523.805,-251.247,70623
523.742,-253.52,70539
523.68,-255.794,70877
523.617,-258.069,71291
523.555,-260.344,71904
523.493,-262.62,73073
523.43,-264.896,74040
523.368,-267.173,75978
523.306,-269.45,77996
523.243,-271.728,81408
523.181,-274.006,84203
523.119,-276.285,88057
523.056,-278.564,90750
522.994,-280.844,93371
522.931,-283.125,95468
522.869,-285.406,97288
522.807,-287.688,98243
522.744,-289.97,98898
522.682,-292.252,100306
522.62,-294.536,99984
522.557,-296.82,99571
522.495,-299.104,100254
522.432,-301.389,100075
522.37,-303.674,99714
522.308,-305.96,99803
522.245,-308.247,99749
522.183,-310.534,99313
522.121,-312.821,99389
522.058,-315.11,99174
521.996,-317.398,98965
521.933,-319.687,98928
521.871,-321.977,98612
521.809,-324.268,98386
521.746,-326.559,98450
521.684,-328.85,98703
521.622,-331.142,97966
521.559,-333.434,97937
521.497,-335.728,98227
521.435,-338.021,97447
521.372,-340.315,97510
521.31,-342.61,97230
521.247,-344.905,97112
521.185,-347.201,97349
521.123,-349.498,96975
521.06,-351.795,97122
520.998,-354.092,96629
520.936,-356.39,96364
520.873,-358.689,95648
520.811,-360.988,96552
520.748,-363.287,96129
520.686,-365.588,95857
520.624,-367.889,95389
520.561,-370.19,95135
520.499,-372.492,95264
520.437,-374.794,94587
520.374,-377.097,94606
520.312,-379.401,94605
520.249,-381.705,94438
520.187,-384.009,94540
520.125,-386.315,94396
520.062,-388.62,94500
520.0,-390.927,94034
519.938,-393.234,93891
519.875,-395.541,93948
519.813,-397.849,94321
519.751,-400.158,93776
519.688,-402.467,93997
519.626,-404.776,93163
519.563,-407.086,93707
519.501,-409.397,93298
519.439,-411.708,93351
519.376,-414.02,92708
519.314,-416.333,92472
519.252,-418.646,92490
519.189,-420.959,91998
519.127,-423.273,91773
519.064,-425.588,91671
519.002,-427.903,91382
518.94,-430.219,91052
518.877,-432.535,90942
518.815,-434.852,90707
518.753,-437.169,90460
518.69,-439.487,90334
518.628,-441.806,90609
518.565,-444.125,90414
518.503,-446.445,89936
518.441,-448.765,89999
518.378,-451.086,89746
518.316,-453.407,89543
518.254,-455.729,89515
518.191,-458.051,89628
518.129,-460.374,89802
518.067,-462.698,89298
518.004,-465.022,89264
517.942,-467.347,89238
517.879,-469.672,89267
517.817,-471.998,89002
517.755,-474.324,89555
517.692,-476.651,89584
517.63,-478.978,89148
517.568,-481.306,89678
517.505,-483.635,89356
517.443,-485.964,89660
517.38,-488.294,90568
517.318,-490.624,91117
517.256,-492.955,92446
517.193,-495.286,94474
517.131,-497.618,96134
517.069,-499.951,97722
517.006,-502.284,96934
516.944,-504.618,95203
516.881,-506.952,93094
516.819,-509.287,91315
516.757,-511.622,90111
516.694,-513.958,89141
516.632,-516.294,88497
516.57,-518.631,87906
516.507,-520.969,87885
516.445,-523.307,87456
516.383,-525.646,87439
516.32,-527.985,87783
516.258,-530.325,87242
516.195,-532.665,87085
516.133,-535.006,87059
516.071,-537.348,86744
516.008,-539.69,86722
515.946,-542.033,86508
515.884,-544.376,86797
515.821,-546.72,86431
515.759,-549.064,86686
515.696,-551.409,86415
515.634,-553.755,86174
515.572,-556.101,86522
515.509,-558.448,85963
515.447,-560.795,86404
515.385,-563.143,86127
515.322,-565.491,85774
515.26,-567.84,85881
515.198,-570.189,85813
515.135,-572.539,85362
515.073,-574.89,85575
515.01,-577.241,85958
514.948,-579.593,85564
514.886,-581.945,85884
514.823,-584.298,85333
514.761,-586.652,85675
514.699,-589.006,85354
514.636,-591.361,85164
514.574,-593.716,85438
514.511,-596.072,85107
514.449,-598.428,85482
514.387,-600.785,85195
514.324,-603.142,85127
514.262,-605.5,85127
514.2,-607.859,84977
514.137,-610.218,84811
514.075,-612.578,84938
514.012,-614.938,84630
513.95,-617.299,84405
513.888,-619.661,84394
513.825,-622.023,84358
513.763,-624.385,84167
513.701,-626.749,84378
513.638,-629.112,84338
513.576,-631.477,83953
513.514,-633.842,84138
513.451,-636.207,83861
513.389,-638.573,83985
513.326,-640.94,83287
513.264,-643.307,83435
513.202,-645.675,83658
513.139,-648.043,83476
513.077,-650.412,83700
513.015,-652.782,83232
512.952,-655.152,83341
512.89,-657.523,83397
512.827,-659.894,83065
512.765,-662.266,83028
512.703,-664.638,83257
512.64,-667.011,82646
512.578,-669.385,82775
512.516,-671.759,82748
512.453,-674.134,82223
512.391,-676.509,82329
512.328,-678.885,82229
512.266,-681.261,82241
512.204,-683.638,82290
512.141,-686.016,81930
512.079,-688.394,82006
512.017,-690.773,81953
511.954,-693.152,81529
511.892,-695.532,81346
511.83,-697.913,81482
511.767,-700.294,81319
511.705,-702.676,81182
511.642,-705.058,81473
511.58,-707.441,80916
511.518,-709.824,80943
511.455,-712.208,80964
511.393,-714.593,80953
511.331,-716.978,80752
511.268,-719.364,80727
511.206,-721.75,80625
511.143,-724.137,80414
511.081,-726.525,79886
511.019,-728.913,80190
510.956,-731.301,79993
510.894,-733.691,80424
510.832,-736.08,80020
510.769,-738.471,79994
510.707,-740.862,79835
510.644,-743.253,79793
510.582,-745.646,79877
510.52,-748.038,79724
510.457,-750.432,79547
510.395,-752.826,79242
510.333,-755.22,79297
510.27,-757.615,79388
510.208,-760.011,79071
510.146,-762.407,79379
510.083,-764.804,79204
510.021,-767.201,78888
509.958,-769.599,78712
509.896,-771.998,78752
509.834,-774.397,78479
509.771,-776.797,78230
509.709,-779.197,78253
509.647,-781.598,78423
509.584,-784,78217
509.522,-786.402,78217
509.459,-788.805,77770
509.397,-791.208,78041
509.335,-793.612,77995
509.272,-796.016,77774
509.21,-798.421,78009
509.148,-800.827,77744
509.085,-803.233,77916
509.023,-805.64,77329
508.96,-808.048,77381
508.898,-810.456,77569
508.836,-812.864,77424
508.773,-815.274,77127
508.711,-817.683,77240
525.364,-194.586,69586
525.301,-196.846,69919
525.239,-199.106,69798
525.177,-201.367,69978
525.114,-203.629,70120
525.052,-205.891,70144
524.99,-208.154,70088
524.927,-210.417,70152
524.865,-212.681,70193
524.802,-214.945,70244
524.74,-217.21,70286
524.678,-219.475,70220
524.615,-221.741,70150
524.553,-224.008,70426
524.491,-226.275,70286
524.428,-228.542,70413
524.366,-230.81,70527
524.304,-233.079,70396
524.241,-235.348,70764
524.179,-237.618,70533
524.116,-239.888,70697
524.054,-242.159,70866
523.992,-244.43,70648
523.929,-246.702,70889
523.867,-248.974,70862
523.805,-251.247,70987
523.742,-253.52,71303
523.68,-255.794,71799
523.617,-258.069,72172
523.555,-260.344,72759
523.493,-262.62,73626
523.43,-264.896,74988
523.368,-267.173,76834
523.306,-269.45,79542
523.243,-271.728,82916
523.181,-274.006,86511
523.119,-276.285,89634
523.056,-278.564,93385
522.994,-280.844,96409
522.931,-283.125,98945
522.869,-285.406,100216
522.807,-287.688,101037
522.744,-289.97,102481
522.682,-292.252,102971
522.62,-294.536,103054
522.557,-296.82,103079
522.495,-299.104,103155
522.432,-301.389,103139
522.37,-303.674,103506
522.308,-305.96,103682
522.245,-308.247,103281
522.183,-310.534,103011
522.121,-312.821,102818
522.058,-315.11,103038
521.996,-317.398,102672
521.933,-319.687,102198
521.871,-321.977,101819
521.809,-324.268,101685
521.746,-326.559,101757
521.684,-328.85,101375
521.622,-331.142,101533
521.559,-333.434,101736
521.497,-335.728,101146
521.435,-338.021,101089
521.372,-340.315,100904
521.31,-342.61,100522
521.247,-344.905,101025
521.185,-347.201,100345
521.123,-349.498,100735
521.06,-351.795,99962
520.998,-354.092,100155
520.936,-356.39,99950
520.873,-358.689,99832
520.811,-360.988,99363
520.748,-363.287,99332
520.686,-365.588,98876
520.624,-367.889,98726
520.561,-370.19,98743
520.499,-372.492,98487
520.437,-374.794,98249
520.374,-377.097,97866
520.312,-379.401,97317
520.249,-381.705,97709
520.187,-384.009,97391
520.125,-386.315,97467
520.062,-388.62,97427
520.0,-390.927,97558
519.938,-393.234,97528
519.875,-395.541,97049
519.813,-397.849,96879
519.751,-400.158,96737
519.688,-402.467,96700
519.626,-404.776,96689
519.563,-407.086,96501
519.501,-409.397,96463
519.439,-411.708,95761
519.376,-414.02,95773
519.314,-416.333,95327
519.252,-418.646,95512
519.189,-420.959,95246
519.127,-423.273,95163
519.064,-425.588,94541
519.002,-427.903,94523
518.94,-430.219,94127
518.877,-432.535,93825
518.815,-434.852,93909
518.753,-437.169,93493
518.69,-439.487,93161
518.628,-441.806,93405
518.565,-444.125,92880
518.503,-446.445,92803
518.441,-448.765,93037
518.378,-451.086,92803
518.316,-453.407,92703
518.254,-455.729,92873
518.191,-458.051,92508
518.129,-460.374,92140
518.067,-462.698,92275
518.004,-465.022,91936
517.942,-467.347,92359
517.879,-469.672,92161
517.817,-471.998,91711
517.755,-474.324,92348
517.692,-476.651,91979
517.63,-478.978,92074
517.568,-481.306,92415
517.505,-483.635,92339
517.443,-485.964,92856
517.38,-488.294,93183
517.318,-490.624,93985
517.256,-492.955,95971
517.193,-495.286,97459
517.131,-497.618,98733
517.069,-499.951,101776
517.006,-502.284,99680
516.944,-504.618,97466
516.881,-506.952,95454
516.819,-509.287,93998
516.757,-511.622,92321
516.694,-513.958,91821
516.632,-516.294,90927
516.57,-518.631,90920
516.507,-520.969,90348
516.445,-523.307,90461
516.383,-525.646,89992
516.32,-527.985,89866
516.258,-530.325,90312
516.195,-532.665,89972
516.133,-535.006,89257
516.071,-537.348,89466
516.008,-539.69,89574
515.946,-542.033,89282
515.884,-544.376,89068
515.821,-546.72,89265
515.759,-549.064,89080
515.696,-551.409,89064
515.634,-553.755,88700
515.572,-556.101,88879
515.509,-558.448,88544
515.447,-560.795,88832
515.385,-563.143,88771
515.322,-565.491,88550
515.26,-567.84,88669
515.198,-570.189,88750
515.135,-572.539,88347
515.073,-574.89,88112
515.01,-577.241,88690
514.948,-579.593,88191
514.886,-581.945,88150
514.823,-584.298,88340
514.761,-586.652,87875
514.699,-589.006,88140
514.636,-591.361,88429
514.574,-593.716,88149
514.511,-596.072,87403
514.449,-598.428,87683
514.387,-600.785,87987
514.324,-603.142,87783
514.262,-605.5,87471
514.2,-607.859,87622
514.137,-610.218,87094
514.075,-612.578,87432
514.012,-614.938,86919
513.95,-617.299,87163
513.888,-619.661,86897
513.825,-622.023,86716
513.763,-624.385,86528
513.701,-626.749,86667
513.638,-629.112,86529
513.576,-631.477,86285
513.514,-633.842,86677
513.451,-636.207,86393
513.389,-638.573,86398
513.326,-640.94,86088
513.264,-643.307,85825
513.202,-645.675,85985
513.139,-648.043,85999
513.077,-650.412,85640
513.015,-652.782,85375
512.952,-655.152,85410
512.89,-657.523,85420
512.827,-659.894,85302
512.765,-662.266,85283
512.703,-664.638,85317
512.64,-667.011,85120
512.578,-669.385,84597
512.516,-671.759,84603
512.453,-674.134,84359
512.391,-676.509,84780
512.328,-678.885,84494
512.266,-681.261,84238
512.204,-683.638,84527
512.141,-686.016,84295
512.079,-688.394,83968
512.017,-690.773,83832
511.954,-693.152,83579
511.892,-695.532,83566
511.83,-697.913,83632
511.767,-700.294,83500
511.705,-702.676,83391
511.642,-705.058,83297
511.58,-707.441,83185
511.518,-709.824,83064
511.455,-712.208,82939
511.393,-714.593,82788
511.331,-716.978,82957
511.268,-719.364,83162
511.206,-721.75,82667
511.143,-724.137,82693
511.081,-726.525,82663
511.019,-728.913,82412
510.956,-731.301,82689
510.894,-733.691,82306
510.832,-736.08,82200
510.769,-738.471,81778
510.707,-740.862,82161
510.644,-743.253,81804
510.582,-745.646,82006
510.52,-748.038,81599
510.457,-750.432,81275
510.395,-752.826,81431
510.333,-755.22,81368
510.27,-757.615,81278
510.208,-760.011,81098
510.146,-762.407,81272
510.083,-764.804,80840
510.021,-767.201,80959
509.958,-769.599,80683
509.896,-771.998,80463
509.834,-774.397,80303
509.771,-776.797,80387
509.709,-779.197,80271
509.647,-781.598,79853
509.584,-784,79888
509.522,-786.402,79753
509.459,-788.805,79591
509.397,-791.208,79667
509.335,-793.612,79612
509.272,-796.016,79296
509.21,-798.421,79474
509.148,-800.827,79522
509.085,-803.233,79260
509.023,-805.64,79122
508.96,-808.048,79131
508.898,-810.456,78918
508.836,-812.864,79095
508.773,-815.274,79100
508.711,-817.683,78809
508.661,-819.612,78933