File: tomke/20240809/raw_data/Si_onTiO2_100mA_30mW_30sec_5acc_545nm.txt
Wavelength(nm), Raman shift(cm^-1), Intensity(counts)
553.364,768.549,243885
553.301,766.512,245442
553.239,764.475,245766
553.177,762.437,245792
553.114,760.398,243977
553.052,758.359,245274
552.99,756.32,245155
552.927,754.28,244550
552.865,752.24,244227
552.802,750.199,244192
552.74,748.158,243178
552.678,746.116,243224
552.615,744.074,243350
552.553,742.032,242005
552.491,739.989,242594
552.428,737.945,242182
552.366,735.901,241221
552.304,733.857,241921
552.241,731.812,240989
552.179,729.766,241195
552.116,727.721,241825
552.054,725.674,240868
551.992,723.628,240417
551.929,721.58,241535
551.867,719.533,241084
551.805,717.485,240155
551.742,715.436,240597
551.68,713.387,240473
551.617,711.337,240756
551.555,709.287,240706
551.493,707.237,240634
551.43,705.186,240344
551.368,703.135,240124
551.306,701.083,240494
551.243,699.031,240689
551.181,696.978,239692
551.119,694.925,239154
551.056,692.871,239764
550.994,690.817,239996
550.931,688.762,239665
550.869,686.707,238327
550.807,684.651,238677
550.744,682.595,239236
550.682,680.539,238357
550.62,678.482,238198
550.557,676.425,237444
550.495,674.367,238452
550.432,672.308,236395
550.37,670.25,235647
550.308,668.19,236814
550.245,666.131,235902
550.183,664.07,234882
550.121,662.01,235169
550.058,659.948,234533
549.996,657.887,234519
549.933,655.825,234163
549.871,653.762,233006
549.809,651.699,233481
549.746,649.636,233313
549.684,647.572,233415
549.622,645.507,233537
549.559,643.442,232187
549.497,641.377,233540
549.435,639.311,233659
549.372,637.245,232630
549.31,635.178,233373
549.247,633.111,233435
549.185,631.043,233640
549.123,628.975,232885
549.06,626.906,233047
548.998,624.837,233501
548.936,622.768,233224
548.873,620.698,233046
548.811,618.627,233267
548.748,616.556,232175
548.686,614.485,231263
548.624,612.413,230809
548.561,610.34,230129
548.499,608.267,229722
548.437,606.194,229994
548.374,604.12,229584
548.312,602.046,228598
548.249,599.971,227907
548.187,597.896,226528
548.125,595.82,226221
548.062,593.744,225735
548.0,591.667,225392
547.938,589.59,224109
547.875,587.513,222989
547.813,585.434,223703
547.751,583.356,222363
547.688,581.277,221587
547.626,579.197,221295
547.563,577.117,221081
547.501,575.037,220366
547.439,572.956,220887
547.376,570.875,219850
547.314,568.793,219429
547.252,566.71,219587
547.189,564.628,220193
547.127,562.544,220214
547.064,560.461,219502
547.002,558.376,219463
546.94,556.292,218686
546.877,554.206,218085
546.815,552.121,219273
546.753,550.035,217945
546.69,547.948,218271
546.628,545.861,217023
546.565,543.773,217927
546.503,541.685,217983
546.441,539.597,216534
546.378,537.508,216563
546.316,535.418,215693
546.254,533.328,215795
546.191,531.238,215990
546.129,529.147,214794
546.067,527.056,213975
546.004,524.964,213105
545.942,522.871,212890
545.879,520.778,212920
545.817,518.685,212738
545.755,516.591,212073
545.692,514.497,211841
545.63,512.402,212459
545.568,510.307,212778
545.505,508.211,213341
545.443,506.115,214876
545.38,504.019,216469
545.318,501.922,218664
545.256,499.824,219809
545.193,497.726,219706
545.131,495.627,216784
545.069,493.528,214774
545.006,491.429,213279
544.944,489.329,212549
544.881,487.228,210675
544.819,485.127,209671
544.757,483.026,209731
544.694,480.924,210170
544.632,478.821,210539
544.57,476.718,209088
544.507,474.615,208890
544.445,472.511,209384
544.383,470.407,208743
544.32,468.302,208367
544.258,466.197,209353
544.195,464.091,207493
544.133,461.985,208813
544.071,459.878,206410
544.008,457.771,206358
543.946,455.663,205053
543.884,453.555,205037
543.821,451.446,204139
543.759,449.337,204452
543.696,447.227,202760
543.634,445.117,202513
543.572,443.006,202407
543.509,440.895,201745
543.447,438.784,201049
543.385,436.671,200903
543.322,434.559,200580
543.26,432.446,200852
543.198,430.332,200226
543.135,428.218,200317
543.073,426.104,200884
543.01,423.989,201233
542.948,421.873,200737
542.886,419.757,201358
542.823,417.641,200059
542.761,415.524,200712
542.699,413.407,201345
542.636,411.289,201658
542.574,409.17,201351
542.511,407.051,200559
542.449,404.932,200346
542.387,402.812,201797
542.324,400.692,200972
542.262,398.571,200234
542.2,396.45,200990
542.137,394.328,199715
542.075,392.205,199257
542.012,390.083,199216
541.95,387.959,198172
541.888,385.836,197014
541.825,383.711,196842
541.763,381.587,195770
541.701,379.461,196057
541.638,377.336,195294
541.576,375.209,195163
541.514,373.083,194653
541.451,370.955,194716
541.389,368.828,194207
541.326,366.7,194611
541.264,364.571,194229
541.202,362.442,193504
541.139,360.312,193372
541.077,358.182,194144
541.015,356.051,193902
540.952,353.92,193483
540.89,351.789,193254
540.827,349.657,192972
540.765,347.524,192499
540.703,345.391,190965
540.64,343.257,190737
540.578,341.123,189429
540.516,338.989,188968
540.453,336.854,187579
540.391,334.718,187667
540.328,332.582,185395
540.266,330.445,185274
540.204,328.308,184376
540.141,326.171,183705
540.079,324.033,182671
540.017,321.894,182468
539.954,319.755,182503
539.892,317.616,182881
539.83,315.476,183338
539.767,313.335,183430
539.705,311.194,184220
539.642,309.053,184173
539.58,306.911,184523
539.518,304.768,184421
539.455,302.625,183964
539.393,300.482,182743
539.331,298.338,180011
539.268,296.194,178748
539.206,294.049,176611
539.143,291.903,174025
539.081,289.757,171642
539.019,287.611,169208
538.956,285.464,167250
538.894,283.316,166652
538.832,281.169,165621
538.769,279.02,165907
538.707,276.871,166577
538.644,274.722,165593
538.582,272.572,162538
538.52,270.421,156112
538.457,268.271,144834
538.395,266.119,131823
538.333,263.967,117422
538.27,261.815,104133
538.208,259.662,92822
538.146,257.508,84008
538.083,255.355,77069
538.021,253.2,72871
537.958,251.045,69899
537.896,248.89,67924
537.834,246.734,66654
537.771,244.578,65726
537.709,242.421,65260
537.647,240.263,64871
537.584,238.105,64548
537.522,235.947,64261
537.459,233.788,64073
537.397,231.629,63930
537.335,229.469,63989
537.272,227.308,63937
537.21,225.147,63759
537.148,222.986,63850
537.085,220.824,63705
537.023,218.662,63625
536.96,216.499,63582
536.898,214.335,63671
536.836,212.171,63416
536.773,210.007,63574
536.711,207.842,63480
553.364,768.549,255309
553.301,766.512,256342
553.239,764.475,255742
553.177,762.437,255423
553.114,760.398,256194
553.052,758.359,256101
552.99,756.32,255336
552.927,754.28,255453
552.865,752.24,253931
552.802,750.199,254124
552.74,748.158,253513
552.678,746.116,253081
552.615,744.074,253737
552.553,742.032,254100
552.491,739.989,253013
552.428,737.945,252072
552.366,735.901,251513
552.304,733.857,251513
552.241,731.812,250398
552.179,729.766,251437
552.116,727.721,251525
552.054,725.674,251289
551.992,723.628,250856
551.929,721.58,251235
551.867,719.533,250654
551.805,717.485,250826
551.742,715.436,250478
551.68,713.387,249759
551.617,711.337,250557
551.555,709.287,250524
551.493,707.237,250685
551.43,705.186,250433
551.368,703.135,249973
551.306,701.083,251071
551.243,699.031,250130
551.181,696.978,249617
551.119,694.925,249790
551.056,692.871,250649
550.994,690.817,249798
550.931,688.762,249530
550.869,686.707,248421
550.807,684.651,248700
550.744,682.595,248332
550.682,680.539,249251
550.62,678.482,247879
550.557,676.425,247725
550.495,674.367,246368
550.432,672.308,246954
550.37,670.25,245827
550.308,668.19,245894
550.245,666.131,245464
550.183,664.07,243819
550.121,662.01,244109
550.058,659.948,244042
549.996,657.887,243544
549.933,655.825,242933
549.871,653.762,242139
549.809,651.699,243313
549.746,649.636,243266
549.684,647.572,242752
549.622,645.507,242764
549.559,643.442,242699
549.497,641.377,243184
549.435,639.311,243253
549.372,637.245,243241
549.31,635.178,243378
549.247,633.111,243174
549.185,631.043,242769
549.123,628.975,242559
549.06,626.906,243295
548.998,624.837,242651
548.936,622.768,242414
548.873,620.698,243000
548.811,618.627,241786
548.748,616.556,241267
548.686,614.485,240880
548.624,612.413,240168
548.561,610.34,241504
548.499,608.267,239307
548.437,606.194,238769
548.374,604.12,239153
548.312,602.046,238361
548.249,599.971,236939
548.187,597.896,236544
548.125,595.82,234668
548.062,593.744,235448
548.0,591.667,234393
547.938,589.59,233222
547.875,587.513,233265
547.813,585.434,233231
547.751,583.356,231717
547.688,581.277,231895
547.626,579.197,231271
547.563,577.117,230714
547.501,575.037,229265
547.439,572.956,229916
547.376,570.875,228513
547.314,568.793,229510
547.252,566.71,228534
547.189,564.628,229611
547.127,562.544,228091
547.064,560.461,228430
547.002,558.376,228257
546.94,556.292,227840
546.877,554.206,227622
546.815,552.121,227824
546.753,550.035,227104
546.69,547.948,227787
546.628,545.861,227560
546.565,543.773,227235
546.503,541.685,226856
546.441,539.597,226604
546.378,537.508,226383
546.316,535.418,225314
546.254,533.328,224465
546.191,531.238,223828
546.129,529.147,223851
546.067,527.056,223279
546.004,524.964,222438
545.942,522.871,222191
545.879,520.778,220976
545.817,518.685,220642
545.755,516.591,219653
545.692,514.497,220638
545.63,512.402,221259
545.568,510.307,220349
545.505,508.211,221990
545.443,506.115,223318
545.38,504.019,225620
545.318,501.922,226513
545.256,499.824,228204
545.193,497.726,227038
545.131,495.627,225616
545.069,493.528,224855
545.006,491.429,221824
544.944,489.329,220727
544.881,487.228,220016
544.819,485.127,219171
544.757,483.026,218225
544.694,480.924,218336
544.632,478.821,218175
544.57,476.718,218344
544.507,474.615,218420
544.445,472.511,217787
544.383,470.407,217354
544.32,468.302,216313
544.258,466.197,216776
544.195,464.091,215687
544.133,461.985,216156
544.071,459.878,216165
544.008,457.771,213727
543.946,455.663,213998
543.884,453.555,212640
543.821,451.446,212452
543.759,449.337,212487
543.696,447.227,210425
543.634,445.117,210730
543.572,443.006,210289
543.509,440.895,211408
543.447,438.784,209581
543.385,436.671,208597
543.322,434.559,209372
543.26,432.446,208226
543.198,430.332,208467
543.135,428.218,208797
543.073,426.104,208469
543.01,423.989,209610
542.948,421.873,208948
542.886,419.757,209905
542.823,417.641,208996
542.761,415.524,209354
542.699,413.407,208946
542.636,411.289,208420
542.574,409.17,209596
542.511,407.051,209092
542.449,404.932,209802
542.387,402.812,208973
542.324,400.692,208342
542.262,398.571,207379
542.2,396.45,207524
542.137,394.328,208013
542.075,392.205,207122
542.012,390.083,206040
541.95,387.959,205037
541.888,385.836,206051
541.825,383.711,204591
541.763,381.587,203949
541.701,379.461,203229
541.638,377.336,203731
541.576,375.209,203015
541.514,373.083,201973
541.451,370.955,201594
541.389,368.828,202405
541.326,366.7,202193
541.264,364.571,203056
541.202,362.442,202534
541.139,360.312,201812
541.077,358.182,201616
541.015,356.051,201364
540.952,353.92,200866
540.89,351.789,200849
540.827,349.657,200824
540.765,347.524,200513
540.703,345.391,198515
540.64,343.257,198813
540.578,341.123,197971
540.516,338.989,195584
540.453,336.854,195772
540.391,334.718,193530
540.328,332.582,193165
540.266,330.445,191631
540.204,328.308,190758
540.141,326.171,190377
540.079,324.033,189778
540.017,321.894,189493
539.954,319.755,188965
539.892,317.616,189621
539.83,315.476,189428
539.767,313.335,190086
539.705,311.194,190593
539.642,309.053,190552
539.58,306.911,191315
539.518,304.768,191200
539.455,302.625,191333
539.393,300.482,189917
539.331,298.338,187543
539.268,296.194,185749
539.206,294.049,182205
539.143,291.903,180778
539.081,289.757,177455
539.019,287.611,176185
538.956,285.464,173728
538.894,283.316,172094
538.832,281.169,171894
538.769,279.02,172504
538.707,276.871,172514
538.644,274.722,172260
538.582,272.572,168628
538.52,270.421,161277
538.457,268.271,149956
538.395,266.119,135522
538.333,263.967,120742
538.27,261.815,106225
538.208,259.662,94921
538.146,257.508,85490
538.083,255.355,78283
538.021,253.2,73687
537.958,251.045,70505
537.896,248.89,68238
537.834,246.734,66966
537.771,244.578,66045
537.709,242.421,65478
537.647,240.263,65074
537.584,238.105,64722
537.522,235.947,64566
537.459,233.788,64299
537.397,231.629,64157
537.335,229.469,64000
537.272,227.308,63969
537.21,225.147,63924
537.148,222.986,63806
537.085,220.824,63819
537.023,218.662,64044
536.96,216.499,63776
536.898,214.335,63661
536.836,212.171,63802
536.773,210.007,63570
536.711,207.842,63693
553.364,768.549,266010
553.301,766.512,266645
553.239,764.475,266683
553.177,762.437,266109
553.114,760.398,265139
553.052,758.359,265993
552.99,756.32,265312
552.927,754.28,266511
552.865,752.24,265516
552.802,750.199,264601
552.74,748.158,265288
552.678,746.116,264478
552.615,744.074,263692
552.553,742.032,263959
552.491,739.989,263416
552.428,737.945,262535
552.366,735.901,261195
552.304,733.857,261099
552.241,731.812,263239
552.179,729.766,262457
552.116,727.721,260976
552.054,725.674,261235
551.992,723.628,260225
551.929,721.58,262039
551.867,719.533,261906
551.805,717.485,261188
551.742,715.436,261510
551.68,713.387,260589
551.617,711.337,261388
551.555,709.287,260988
551.493,707.237,261555
551.43,705.186,261855
551.368,703.135,261298
551.306,701.083,261831
551.243,699.031,261516
551.181,696.978,260604
551.119,694.925,260833
551.056,692.871,261579
550.994,690.817,260715
550.931,688.762,259620
550.869,686.707,259736
550.807,684.651,259355
550.744,682.595,258995
550.682,680.539,258177
550.62,678.482,257822
550.557,676.425,257509
550.495,674.367,257783
550.432,672.308,256006
550.37,670.25,258369
550.308,668.19,255273
550.245,666.131,255632
550.183,664.07,254320
550.121,662.01,254951
550.058,659.948,254528
549.996,657.887,254214
549.933,655.825,253235
549.871,653.762,253738
549.809,651.699,253667
549.746,649.636,254005
549.684,647.572,253587
549.622,645.507,252561
549.559,643.442,253333
549.497,641.377,251961
549.435,639.311,252312
549.372,637.245,253121
549.31,635.178,252734
549.247,633.111,254423
549.185,631.043,252728
549.123,628.975,252453
549.06,626.906,254041
548.998,624.837,253065
548.936,622.768,252765
548.873,620.698,252742
548.811,618.627,252699
548.748,616.556,252139
548.686,614.485,251601
548.624,612.413,250318
548.561,610.34,250446
548.499,608.267,249523
548.437,606.194,248466
548.374,604.12,248526
548.312,602.046,247943
548.249,599.971,245933
548.187,597.896,246645
548.125,595.82,245862
548.062,593.744,245078
548.0,591.667,244099
547.938,589.59,242460
547.875,587.513,241917
547.813,585.434,242906
547.751,583.356,241936
547.688,581.277,241154
547.626,579.197,239806
547.563,577.117,239191
547.501,575.037,239450
547.439,572.956,238394
547.376,570.875,238788
547.314,568.793,237457
547.252,566.71,238623
547.189,564.628,238054
547.127,562.544,237976
547.064,560.461,237814
547.002,558.376,237160
546.94,556.292,237524
546.877,554.206,236864
546.815,552.121,237245
546.753,550.035,237160
546.69,547.948,236932
546.628,545.861,237093
546.565,543.773,235914
546.503,541.685,235469
546.441,539.597,240927
546.378,537.508,234039
546.316,535.418,233807
546.254,533.328,234544
546.191,531.238,233799
546.129,529.147,232258
546.067,527.056,231584
546.004,524.964,231361
545.942,522.871,229649
545.879,520.778,229673
545.817,518.685,229659
545.755,516.591,229801
545.692,514.497,230047
545.63,512.402,229894
545.568,510.307,229437
545.505,508.211,231044
545.443,506.115,232519
545.38,504.019,233597
545.318,501.922,236561
545.256,499.824,237426
545.193,497.726,235904
545.131,495.627,235074
545.069,493.528,232733
545.006,491.429,230795
544.944,489.329,229529
544.881,487.228,228447
544.819,485.127,226813
544.757,483.026,227562
544.694,480.924,226572
544.632,478.821,226946
544.57,476.718,226787
544.507,474.615,226472
544.445,472.511,226538
544.383,470.407,226782
544.32,468.302,225634
544.258,466.197,225453
544.195,464.091,225404
544.133,461.985,224484
544.071,459.878,224229
544.008,457.771,223417
543.946,455.663,223230
543.884,453.555,221505
543.821,451.446,220965
543.759,449.337,221001
543.696,447.227,220522
543.634,445.117,219374
543.572,443.006,219506
543.509,440.895,218886
543.447,438.784,217360
543.385,436.671,217898
543.322,434.559,217783
543.26,432.446,217370
543.198,430.332,216995
543.135,428.218,217156
543.073,426.104,217598
543.01,423.989,217494
542.948,421.873,216875
542.886,419.757,218389
542.823,417.641,217816
542.761,415.524,217447
542.699,413.407,217275
542.636,411.289,218113
542.574,409.17,218274
542.511,407.051,216550
542.449,404.932,217804
542.387,402.812,217736
542.324,400.692,217106
542.262,398.571,215997
542.2,396.45,216675
542.137,394.328,215447
542.075,392.205,215339
542.012,390.083,214119
541.95,387.959,213971
541.888,385.836,213524
541.825,383.711,213032
541.763,381.587,211260
541.701,379.461,212346
541.638,377.336,211408
541.576,375.209,211416
541.514,373.083,210626
541.451,370.955,210320
541.389,368.828,210792
541.326,366.7,210120
541.264,364.571,209694
541.202,362.442,209916
541.139,360.312,209993
541.077,358.182,210046
541.015,356.051,209587
540.952,353.92,209864
540.89,351.789,208336
540.827,349.657,208532
540.765,347.524,208108
540.703,345.391,206786
540.64,343.257,206800
540.578,341.123,205787
540.516,338.989,203747
540.453,336.854,202732
540.391,334.718,201485
540.328,332.582,200746
540.266,330.445,199093
540.204,328.308,198744
540.141,326.171,198130
540.079,324.033,196780
540.017,321.894,196922
539.954,319.755,197122
539.892,317.616,196850
539.83,315.476,196670
539.767,313.335,198298
539.705,311.194,198758
539.642,309.053,197893
539.58,306.911,199312
539.518,304.768,198773
539.455,302.625,197553
539.393,300.482,196788
539.331,298.338,194936
539.268,296.194,192869
539.206,294.049,190728
539.143,291.903,187693
539.081,289.757,185537
539.019,287.611,182031
538.956,285.464,180037
538.894,283.316,178930
538.832,281.169,178655
538.769,279.02,178842
538.707,276.871,179277
538.644,274.722,177888
538.582,272.572,174461
538.52,270.421,166421
538.457,268.271,154629
538.395,266.119,139182
538.333,263.967,123690
538.27,261.815,109210
538.208,259.662,96198
538.146,257.508,86588
538.083,255.355,79028
538.021,253.2,74177
537.958,251.045,70776
537.896,248.89,68797
537.834,246.734,67273
537.771,244.578,66329
537.709,242.421,65627
537.647,240.263,65195
537.584,238.105,64904
537.522,235.947,64547
537.459,233.788,64481
537.397,231.629,64344
537.335,229.469,64329
537.272,227.308,64060
537.21,225.147,64107
537.148,222.986,64008
537.085,220.824,64099
537.023,218.662,63993
536.96,216.499,63844
536.898,214.335,63814
536.836,212.171,63812
536.773,210.007,63811
536.711,207.842,63762
553.364,768.549,267088
553.301,766.512,268167
553.239,764.475,266901
553.177,762.437,267025
553.114,760.398,267005
553.052,758.359,266472
552.99,756.32,267172
552.927,754.28,266828
552.865,752.24,264849
552.802,750.199,265248
552.74,748.158,265111
552.678,746.116,264187
552.615,744.074,266597
552.553,742.032,264304
552.491,739.989,265125
552.428,737.945,262973
552.366,735.901,262711
552.304,733.857,262561
552.241,731.812,261668
552.179,729.766,262923
552.116,727.721,262473
552.054,725.674,262341
551.992,723.628,261208
551.929,721.58,262074
551.867,719.533,262091
551.805,717.485,260990
551.742,715.436,261982
551.68,713.387,261302
551.617,711.337,262064
551.555,709.287,262119
551.493,707.237,261641
551.43,705.186,260555
551.368,703.135,260307
551.306,701.083,261631
551.243,699.031,261388
551.181,696.978,260445
551.119,694.925,261684
551.056,692.871,261644
550.994,690.817,260655
550.931,688.762,260792
550.869,686.707,259366
550.807,684.651,260487
550.744,682.595,259418
550.682,680.539,259634
550.62,678.482,259479
550.557,676.425,259277
550.495,674.367,257431
550.432,672.308,257677
550.37,670.25,256837
550.308,668.19,256536
550.245,666.131,257022
550.183,664.07,255602
550.121,662.01,254644
550.058,659.948,255120
549.996,657.887,253746
549.933,655.825,253480
549.871,653.762,253641
549.809,651.699,253900
549.746,649.636,252759
549.684,647.572,253418
549.622,645.507,253944
549.559,643.442,253228
549.497,641.377,253633
549.435,639.311,253382
549.372,637.245,254048
549.31,635.178,253470
549.247,633.111,253794
549.185,631.043,253678
549.123,628.975,252855
549.06,626.906,253540
548.998,624.837,253145
548.936,622.768,252914
548.873,620.698,253429
548.811,618.627,251770
548.748,616.556,251947
548.686,614.485,251435
548.624,612.413,251215
548.561,610.34,250725
548.499,608.267,250556
548.437,606.194,249490
548.374,604.12,248596
548.312,602.046,248898
548.249,599.971,246661
548.187,597.896,246668
548.125,595.82,246177
548.062,593.744,246292
548.0,591.667,244501
547.938,589.59,243598
547.875,587.513,242366
547.813,585.434,242394
547.751,583.356,241245
547.688,581.277,241803
547.626,579.197,239548
547.563,577.117,240737
547.501,575.037,240517
547.439,572.956,240392
547.376,570.875,238902
547.314,568.793,238632
547.252,566.71,238516
547.189,564.628,238933
547.127,562.544,238685
547.064,560.461,237413
547.002,558.376,237540
546.94,556.292,238089
546.877,554.206,236624
546.815,552.121,237898
546.753,550.035,237758
546.69,547.948,235748
546.628,545.861,237435
546.565,543.773,236374
546.503,541.685,235995
546.441,539.597,236093
546.378,537.508,235761
546.316,535.418,234615
546.254,533.328,234384
546.191,531.238,234025
546.129,529.147,232638
546.067,527.056,232231
546.004,524.964,230951
545.942,522.871,231529
545.879,520.778,231115
545.817,518.685,230623
545.755,516.591,230315
545.692,514.497,229920
545.63,512.402,230078
545.568,510.307,230246
545.505,508.211,230838
545.443,506.115,232386
545.38,504.019,234627
545.318,501.922,236041
545.256,499.824,237880
545.193,497.726,235877
545.131,495.627,233456
545.069,493.528,232101
545.006,491.429,230904
544.944,489.329,229734
544.881,487.228,227895
544.819,485.127,228715
544.757,483.026,227592
544.694,480.924,227728
544.632,478.821,227387
544.57,476.718,226736
544.507,474.615,226250
544.445,472.511,227668
544.383,470.407,227654
544.32,468.302,225225
544.258,466.197,225423
544.195,464.091,225717
544.133,461.985,224824
544.071,459.878,225113
544.008,457.771,223279
543.946,455.663,223416
543.884,453.555,222582
543.821,451.446,221622
543.759,449.337,220916
543.696,447.227,220537
543.634,445.117,219680
543.572,443.006,219321
543.509,440.895,218909
543.447,438.784,217197
543.385,436.671,217903
543.322,434.559,217359
543.26,432.446,217936
543.198,430.332,217016
543.135,428.218,217171
543.073,426.104,217616
543.01,423.989,216896
542.948,421.873,217615
542.886,419.757,217577
542.823,417.641,218176
542.761,415.524,218613
542.699,413.407,217353
542.636,411.289,218682
542.574,409.17,218301
542.511,407.051,218681
542.449,404.932,217467
542.387,402.812,217860
542.324,400.692,216506
542.262,398.571,216417
542.2,396.45,216433
542.137,394.328,216664
542.075,392.205,215688
542.012,390.083,214700
541.95,387.959,213775
541.888,385.836,213697
541.825,383.711,212604
541.763,381.587,212441
541.701,379.461,211521
541.638,377.336,211346
541.576,375.209,211698
541.514,373.083,210114
541.451,370.955,211083
541.389,368.828,210288
541.326,366.7,210897
541.264,364.571,209826
541.202,362.442,209506
541.139,360.312,209015
541.077,358.182,210227
541.015,356.051,209742
540.952,353.92,210155
540.89,351.789,208607
540.827,349.657,209124
540.765,347.524,208169
540.703,345.391,207365
540.64,343.257,206813
540.578,341.123,205991
540.516,338.989,204229
540.453,336.854,204062
540.391,334.718,201536
540.328,332.582,201145
540.266,330.445,199787
540.204,328.308,198933
540.141,326.171,197426
540.079,324.033,197416
540.017,321.894,196599
539.954,319.755,197220
539.892,317.616,196870
539.83,315.476,197696
539.767,313.335,198130
539.705,311.194,199081
539.642,309.053,198443
539.58,306.911,199815
539.518,304.768,199261
539.455,302.625,198465
539.393,300.482,197359
539.331,298.338,195746
539.268,296.194,193705
539.206,294.049,190398
539.143,291.903,187755
539.081,289.757,186003
539.019,287.611,182200
538.956,285.464,180127
538.894,283.316,178802
538.832,281.169,177947
538.769,279.02,178547
538.707,276.871,178283
538.644,274.722,178259
538.582,272.572,174745
538.52,270.421,166447
538.457,268.271,154755
538.395,266.119,139808
538.333,263.967,124500
538.27,261.815,109282
538.208,259.662,96592
538.146,257.508,86746
538.083,255.355,79170
538.021,253.2,74387
537.958,251.045,70824
537.896,248.89,68658
537.834,246.734,67292
537.771,244.578,66254
537.709,242.421,65962
537.647,240.263,65289
537.584,238.105,64976
537.522,235.947,64717
537.459,233.788,64603
537.397,231.629,64479
537.335,229.469,64299
537.272,227.308,64135
537.21,225.147,64088
537.148,222.986,64037
537.085,220.824,64083
537.023,218.662,63966
536.96,216.499,63975
536.898,214.335,63830
536.836,212.171,63809
536.773,210.007,63889
536.711,207.842,63795
553.364,768.549,265180
553.301,766.512,265994
553.239,764.475,266078
553.177,762.437,264986
553.114,760.398,265080
553.052,758.359,265073
552.99,756.32,265855
552.927,754.28,264729
552.865,752.24,263741
552.802,750.199,262881
552.74,748.158,263497
552.678,746.116,262323
552.615,744.074,263034
552.553,742.032,263512
552.491,739.989,262432
552.428,737.945,262313
552.366,735.901,261777
552.304,733.857,260896
552.241,731.812,261935
552.179,729.766,262121
552.116,727.721,261081
552.054,725.674,262016
551.992,723.628,260168
551.929,721.58,260527
551.867,719.533,260822
551.805,717.485,260801
551.742,715.436,259633
551.68,713.387,260727
551.617,711.337,260460
551.555,709.287,260090
551.493,707.237,260247
551.43,705.186,261135
551.368,703.135,260705
551.306,701.083,260863
551.243,699.031,260554
551.181,696.978,258706
551.119,694.925,260028
551.056,692.871,259751
550.994,690.817,259909
550.931,688.762,259316
550.869,686.707,259639
550.807,684.651,257738
550.744,682.595,258080
550.682,680.539,258277
550.62,678.482,257011
550.557,676.425,256989
550.495,674.367,256403
550.432,672.308,255382
550.37,670.25,255616
550.308,668.19,254547
550.245,666.131,255642
550.183,664.07,255116
550.121,662.01,254489
550.058,659.948,254207
549.996,657.887,254018
549.933,655.825,253651
549.871,653.762,252338
549.809,651.699,252663
549.746,649.636,253492
549.684,647.572,252866
549.622,645.507,252595
549.559,643.442,253502
549.497,641.377,252837
549.435,639.311,251872
549.372,637.245,252844
549.31,635.178,251695
549.247,633.111,253089
549.185,631.043,252841
549.123,628.975,252667
549.06,626.906,251959
548.998,624.837,251758
548.936,622.768,252288
548.873,620.698,252189
548.811,618.627,251999
548.748,616.556,251222
548.686,614.485,250876
548.624,612.413,249765
548.561,610.34,249337
548.499,608.267,248521
548.437,606.194,248883
548.374,604.12,247037
548.312,602.046,247981
548.249,599.971,247009
548.187,597.896,245265
548.125,595.82,244221
548.062,593.744,244455
548.0,591.667,243422
547.938,589.59,242684
547.875,587.513,241191
547.813,585.434,242458
547.751,583.356,240278
547.688,581.277,240052
547.626,579.197,239458
547.563,577.117,238841
547.501,575.037,239541
547.439,572.956,238069
547.376,570.875,238594
547.314,568.793,237461
547.252,566.71,237487
547.189,564.628,238687
547.127,562.544,236448
547.064,560.461,236395
547.002,558.376,236708
546.94,556.292,236768
546.877,554.206,236219
546.815,552.121,236280
546.753,550.035,237324
546.69,547.948,235565
546.628,545.861,236443
546.565,543.773,235533
546.503,541.685,235173
546.441,539.597,234909
546.378,537.508,234148
546.316,535.418,233438
546.254,533.328,232551
546.191,531.238,233137
546.129,529.147,232048
546.067,527.056,231599
546.004,524.964,230607
545.942,522.871,230822
545.879,520.778,228613
545.817,518.685,229460
545.755,516.591,229331
545.692,514.497,229120
545.63,512.402,228386
545.568,510.307,228963
545.505,508.211,230270
545.443,506.115,231671
545.38,504.019,233758
545.318,501.922,235676
545.256,499.824,235641
545.193,497.726,235687
545.131,495.627,232616
545.069,493.528,231698
545.006,491.429,230341
544.944,489.329,228734
544.881,487.228,227545
544.819,485.127,227157
544.757,483.026,225672
544.694,480.924,227286
544.632,478.821,225637
544.57,476.718,225234
544.507,474.615,225716
544.445,472.511,224826
544.383,470.407,225221
544.32,468.302,224200
544.258,466.197,224913
544.195,464.091,223423
544.133,461.985,223312
544.071,459.878,223047
544.008,457.771,222351
543.946,455.663,222595
543.884,453.555,221215
543.821,451.446,220853
543.759,449.337,220333
543.696,447.227,219399
543.634,445.117,218539
543.572,443.006,218775
543.509,440.895,218020
543.447,438.784,216996
543.385,436.671,216636
543.322,434.559,216605
543.26,432.446,216639
543.198,430.332,216018
543.135,428.218,216471
543.073,426.104,216759
543.01,423.989,216756
542.948,421.873,217213
542.886,419.757,216833
542.823,417.641,216644
542.761,415.524,217099
542.699,413.407,218045
542.636,411.289,216739
542.574,409.17,216944
542.511,407.051,217321
542.449,404.932,216874
542.387,402.812,216612
542.324,400.692,215622
542.262,398.571,215383
542.2,396.45,215994
542.137,394.328,215207
542.075,392.205,214705
542.012,390.083,214427
541.95,387.959,213195
541.888,385.836,212100
541.825,383.711,212473
541.763,381.587,211771
541.701,379.461,211152
541.638,377.336,209878
541.576,375.209,209566
541.514,373.083,210163
541.451,370.955,209913
541.389,368.828,208747
541.326,366.7,210278
541.264,364.571,209502
541.202,362.442,209737
541.139,360.312,209510
541.077,358.182,208753
541.015,356.051,209615
540.952,353.92,208501
540.89,351.789,208877
540.827,349.657,207486
540.765,347.524,207731
540.703,345.391,206583
540.64,343.257,206000
540.578,341.123,205305
540.516,338.989,203998
540.453,336.854,203369
540.391,334.718,201413
540.328,332.582,200365
540.266,330.445,198879
540.204,328.308,197591
540.141,326.171,197185
540.079,324.033,197469
540.017,321.894,196932
539.954,319.755,195779
539.892,317.616,196422
539.83,315.476,196313
539.767,313.335,196751
539.705,311.194,197211
539.642,309.053,197587
539.58,306.911,199660
539.518,304.768,198605
539.455,302.625,198791
539.393,300.482,196598
539.331,298.338,196112
539.268,296.194,192504
539.206,294.049,190317
539.143,291.903,186793
539.081,289.757,183956
539.019,287.611,182042
538.956,285.464,179624
538.894,283.316,178258
538.832,281.169,177927
538.769,279.02,177898
538.707,276.871,178841
538.644,274.722,177230
538.582,272.572,173248
538.52,270.421,166699
538.457,268.271,154550
538.395,266.119,139860
538.333,263.967,123621
538.27,261.815,109433
538.208,259.662,96794
538.146,257.508,86366
538.083,255.355,79249
538.021,253.2,74270
537.958,251.045,70843
537.896,248.89,68678
537.834,246.734,67365
537.771,244.578,66477
537.709,242.421,65719
537.647,240.263,65361
537.584,238.105,65015
537.522,235.947,64631
537.459,233.788,64433
537.397,231.629,64409
537.335,229.469,64134
537.272,227.308,64187
537.21,225.147,64026
537.148,222.986,63986
537.085,220.824,63907
537.023,218.662,63988
536.96,216.499,63853
536.898,214.335,63850
536.836,212.171,63877
536.773,210.007,63878
536.711,207.842,63708
536.661,206.11,63861