File: tomke/20240809/raw_data/Si_onTiO2_80mA_30mW_30sec_5acc_545nm.txt
Wavelength(nm), Raman shift(cm^-1), Intensity(counts)
553.364,768.549,294552
553.301,766.512,295718
553.239,764.475,294270
553.177,762.437,293771
553.114,760.398,295248
553.052,758.359,294290
552.99,756.32,293951
552.927,754.28,294838
552.865,752.24,293393
552.802,750.199,293194
552.74,748.158,292877
552.678,746.116,292430
552.615,744.074,291883
552.553,742.032,291077
552.491,739.989,290605
552.428,737.945,289977
552.366,735.901,289267
552.304,733.857,289812
552.241,731.812,289872
552.179,729.766,290302
552.116,727.721,289606
552.054,725.674,288445
551.992,723.628,289213
551.929,721.58,289038
551.867,719.533,289334
551.805,717.485,288018
551.742,715.436,288682
551.68,713.387,288531
551.617,711.337,288456
551.555,709.287,289321
551.493,707.237,289253
551.43,705.186,288330
551.368,703.135,288464
551.306,701.083,288799
551.243,699.031,288629
551.181,696.978,288392
551.119,694.925,287949
551.056,692.871,288995
550.994,690.817,288068
550.931,688.762,288066
550.869,686.707,287162
550.807,684.651,286735
550.744,682.595,286217
550.682,680.539,285968
550.62,678.482,285346
550.557,676.425,284866
550.495,674.367,284065
550.432,672.308,284072
550.37,670.25,284141
550.308,668.19,283497
550.245,666.131,281191
550.183,664.07,282324
550.121,662.01,282168
550.058,659.948,282238
549.996,657.887,280644
549.933,655.825,279717
549.871,653.762,280794
549.809,651.699,279727
549.746,649.636,280351
549.684,647.572,280031
549.622,645.507,279843
549.559,643.442,280716
549.497,641.377,280191
549.435,639.311,279577
549.372,637.245,279827
549.31,635.178,280243
549.247,633.111,281776
549.185,631.043,279332
549.123,628.975,280299
549.06,626.906,279660
548.998,624.837,279151
548.936,622.768,279496
548.873,620.698,278874
548.811,618.627,278733
548.748,616.556,278831
548.686,614.485,277152
548.624,612.413,277523
548.561,610.34,276785
548.499,608.267,276838
548.437,606.194,275464
548.374,604.12,277053
548.312,602.046,274343
548.249,599.971,274164
548.187,597.896,272493
548.125,595.82,271955
548.062,593.744,272302
548.0,591.667,270384
547.938,589.59,269751
547.875,587.513,268504
547.813,585.434,268397
547.751,583.356,266939
547.688,581.277,266954
547.626,579.197,265199
547.563,577.117,265917
547.501,575.037,264954
547.439,572.956,265508
547.376,570.875,263450
547.314,568.793,263548
547.252,566.71,264399
547.189,564.628,264301
547.127,562.544,263883
547.064,560.461,263478
547.002,558.376,263391
546.94,556.292,264319
546.877,554.206,263668
546.815,552.121,262362
546.753,550.035,262255
546.69,547.948,262907
546.628,545.861,263212
546.565,543.773,261301
546.503,541.685,262014
546.441,539.597,260687
546.378,537.508,261044
546.316,535.418,260743
546.254,533.328,259254
546.191,531.238,260127
546.129,529.147,258145
546.067,527.056,258183
546.004,524.964,258108
545.942,522.871,257677
545.879,520.778,255710
545.817,518.685,255855
545.755,516.591,255626
545.692,514.497,255014
545.63,512.402,254704
545.568,510.307,255138
545.505,508.211,256401
545.443,506.115,257313
545.38,504.019,258440
545.318,501.922,261785
545.256,499.824,261832
545.193,497.726,262202
545.131,495.627,260802
545.069,493.528,259470
545.006,491.429,258200
544.944,489.329,254551
544.881,487.228,253663
544.819,485.127,252945
544.757,483.026,253318
544.694,480.924,253724
544.632,478.821,252856
544.57,476.718,252352
544.507,474.615,252518
544.445,472.511,251849
544.383,470.407,252441
544.32,468.302,252066
544.258,466.197,250784
544.195,464.091,250374
544.133,461.985,250302
544.071,459.878,250550
544.008,457.771,248307
543.946,455.663,248058
543.884,453.555,247404
543.821,451.446,247231
543.759,449.337,245554
543.696,447.227,244717
543.634,445.117,244762
543.572,443.006,243771
543.509,440.895,242977
543.447,438.784,242748
543.385,436.671,242509
543.322,434.559,242660
543.26,432.446,242627
543.198,430.332,242110
543.135,428.218,241075
543.073,426.104,241997
543.01,423.989,242440
542.948,421.873,242367
542.886,419.757,242753
542.823,417.641,243247
542.761,415.524,243263
542.699,413.407,244255
542.636,411.289,244049
542.574,409.17,243251
542.511,407.051,242020
542.449,404.932,242595
542.387,402.812,242988
542.324,400.692,242310
542.262,398.571,242172
542.2,396.45,241444
542.137,394.328,240703
542.075,392.205,241199
542.012,390.083,238893
541.95,387.959,238768
541.888,385.836,237802
541.825,383.711,236779
541.763,381.587,236334
541.701,379.461,236391
541.638,377.336,235447
541.576,375.209,235396
541.514,373.083,234760
541.451,370.955,234092
541.389,368.828,234276
541.326,366.7,235021
541.264,364.571,234051
541.202,362.442,234869
541.139,360.312,234122
541.077,358.182,235231
541.015,356.051,233704
540.952,353.92,234576
540.89,351.789,232741
540.827,349.657,232658
540.765,347.524,231823
540.703,345.391,231343
540.64,343.257,230051
540.578,341.123,229516
540.516,338.989,227753
540.453,336.854,225736
540.391,334.718,224866
540.328,332.582,223606
540.266,330.445,222140
540.204,328.308,220933
540.141,326.171,220763
540.079,324.033,218893
540.017,321.894,219661
539.954,319.755,219313
539.892,317.616,218806
539.83,315.476,219874
539.767,313.335,221599
539.705,311.194,220642
539.642,309.053,222049
539.58,306.911,221794
539.518,304.768,221657
539.455,302.625,220220
539.393,300.482,219586
539.331,298.338,217097
539.268,296.194,213887
539.206,294.049,210266
539.143,291.903,208568
539.081,289.757,204285
539.019,287.611,201249
538.956,285.464,199753
538.894,283.316,197260
538.832,281.169,196846
538.769,279.02,198099
538.707,276.871,198303
538.644,274.722,197218
538.582,272.572,193053
538.52,270.421,183704
538.457,268.271,169071
538.395,266.119,151489
538.333,263.967,132585
538.27,261.815,115584
538.208,259.662,101192
538.146,257.508,89542
538.083,255.355,81307
538.021,253.2,75597
537.958,251.045,71840
537.896,248.89,69080
537.834,246.734,67780
537.771,244.578,66642
537.709,242.421,66042
537.647,240.263,65497
537.584,238.105,64981
537.522,235.947,64789
537.459,233.788,64606
537.397,231.629,64394
537.335,229.469,64230
537.272,227.308,64260
537.21,225.147,64062
537.148,222.986,64134
537.085,220.824,64091
537.023,218.662,63970
536.96,216.499,63839
536.898,214.335,63882
536.836,212.171,63882
536.773,210.007,63848
536.711,207.842,63780
553.364,768.549,283296
553.301,766.512,284674
553.239,764.475,284715
553.177,762.437,283492
553.114,760.398,283825
553.052,758.359,283213
552.99,756.32,283181
552.927,754.28,283168
552.865,752.24,283922
552.802,750.199,281633
552.74,748.158,281679
552.678,746.116,281960
552.615,744.074,281058
552.553,742.032,281898
552.491,739.989,281175
552.428,737.945,279770
552.366,735.901,279290
552.304,733.857,279032
552.241,731.812,278854
552.179,729.766,279272
552.116,727.721,278757
552.054,725.674,278265
551.992,723.628,278307
551.929,721.58,278299
551.867,719.533,278950
551.805,717.485,277310
551.742,715.436,277779
551.68,713.387,277694
551.617,711.337,277334
551.555,709.287,278119
551.493,707.237,279202
551.43,705.186,278542
551.368,703.135,277880
551.306,701.083,279054
551.243,699.031,279256
551.181,696.978,277704
551.119,694.925,277794
551.056,692.871,280145
550.994,690.817,278194
550.931,688.762,277094
550.869,686.707,276398
550.807,684.651,276531
550.744,682.595,275456
550.682,680.539,275574
550.62,678.482,275814
550.557,676.425,275659
550.495,674.367,275149
550.432,672.308,273427
550.37,670.25,273050
550.308,668.19,272078
550.245,666.131,272022
550.183,664.07,272674
550.121,662.01,270142
550.058,659.948,271211
549.996,657.887,270790
549.933,655.825,270616
549.871,653.762,270249
549.809,651.699,270241
549.746,649.636,269637
549.684,647.572,270602
549.622,645.507,270224
549.559,643.442,269981
549.497,641.377,270683
549.435,639.311,270072
549.372,637.245,270047
549.31,635.178,270452
549.247,633.111,270590
549.185,631.043,270607
549.123,628.975,270461
549.06,626.906,270655
548.998,624.837,269303
548.936,622.768,269649
548.873,620.698,269749
548.811,618.627,269449
548.748,616.556,268337
548.686,614.485,267847
548.624,612.413,268632
548.561,610.34,267244
548.499,608.267,266443
548.437,606.194,265815
548.374,604.12,266129
548.312,602.046,264576
548.249,599.971,263741
548.187,597.896,262894
548.125,595.82,262482
548.062,593.744,261576
548.0,591.667,260955
547.938,589.59,259866
547.875,587.513,259008
547.813,585.434,258365
547.751,583.356,258104
547.688,581.277,257140
547.626,579.197,257427
547.563,577.117,255647
547.501,575.037,254805
547.439,572.956,255492
547.376,570.875,255507
547.314,568.793,255908
547.252,566.71,255096
547.189,564.628,254870
547.127,562.544,254899
547.064,560.461,254292
547.002,558.376,254700
546.94,556.292,254718
546.877,554.206,254189
546.815,552.121,253931
546.753,550.035,253769
546.69,547.948,254110
546.628,545.861,253940
546.565,543.773,252893
546.503,541.685,252981
546.441,539.597,252615
546.378,537.508,252026
546.316,535.418,251345
546.254,533.328,250742
546.191,531.238,250349
546.129,529.147,249444
546.067,527.056,248803
546.004,524.964,248445
545.942,522.871,248158
545.879,520.778,247314
545.817,518.685,247015
545.755,516.591,246504
545.692,514.497,245865
545.63,512.402,246342
545.568,510.307,246877
545.505,508.211,246368
545.443,506.115,249494
545.38,504.019,251234
545.318,501.922,253369
545.256,499.824,254206
545.193,497.726,254419
545.131,495.627,251153
545.069,493.528,250655
545.006,491.429,248016
544.944,489.329,246801
544.881,487.228,245096
544.819,485.127,245624
544.757,483.026,245137
544.694,480.924,245483
544.632,478.821,244222
544.57,476.718,243443
544.507,474.615,243742
544.445,472.511,243489
544.383,470.407,243405
544.32,468.302,242075
544.258,466.197,242117
544.195,464.091,241988
544.133,461.985,240915
544.071,459.878,241012
544.008,457.771,239731
543.946,455.663,238955
543.884,453.555,239550
543.821,451.446,236970
543.759,449.337,237103
543.696,447.227,237178
543.634,445.117,236280
543.572,443.006,235203
543.509,440.895,235175
543.447,438.784,234256
543.385,436.671,233996
543.322,434.559,232879
543.26,432.446,232968
543.198,430.332,234083
543.135,428.218,233820
543.073,426.104,233416
543.01,423.989,233757
542.948,421.873,232939
542.886,419.757,234392
542.823,417.641,233923
542.761,415.524,235143
542.699,413.407,233617
542.636,411.289,233485
542.574,409.17,234487
542.511,407.051,234153
542.449,404.932,233967
542.387,402.812,233966
542.324,400.692,234162
542.262,398.571,233176
542.2,396.45,232814
542.137,394.328,232208
542.075,392.205,231949
542.012,390.083,232053
541.95,387.959,230480
541.888,385.836,229435
541.825,383.711,228628
541.763,381.587,228133
541.701,379.461,228324
541.638,377.336,227134
541.576,375.209,226746
541.514,373.083,227213
541.451,370.955,227774
541.389,368.828,226510
541.326,366.7,226775
541.264,364.571,226956
541.202,362.442,226001
541.139,360.312,226662
541.077,358.182,226235
541.015,356.051,226170
540.952,353.92,226306
540.89,351.789,224491
540.827,349.657,224299
540.765,347.524,224989
540.703,345.391,222307
540.64,343.257,222990
540.578,341.123,221766
540.516,338.989,220094
540.453,336.854,218961
540.391,334.718,216454
540.328,332.582,216103
540.266,330.445,215430
540.204,328.308,213612
540.141,326.171,212625
540.079,324.033,211991
540.017,321.894,212155
539.954,319.755,212075
539.892,317.616,212394
539.83,315.476,212078
539.767,313.335,212279
539.705,311.194,213537
539.642,309.053,214440
539.58,306.911,213447
539.518,304.768,214544
539.455,302.625,212746
539.393,300.482,211924
539.331,298.338,210001
539.268,296.194,207170
539.206,294.049,204870
539.143,291.903,200750
539.081,289.757,198209
539.019,287.611,195960
538.956,285.464,192112
538.894,283.316,191136
538.832,281.169,195812
538.769,279.02,190695
538.707,276.871,191549
538.644,274.722,191173
538.582,272.572,186098
538.52,270.421,178148
538.457,268.271,163770
538.395,266.119,146993
538.333,263.967,130039
538.27,261.815,113058
538.208,259.662,99161
538.146,257.508,88378
538.083,255.355,80236
538.021,253.2,74858
537.958,251.045,71413
537.896,248.89,69140
537.834,246.734,67264
537.771,244.578,66472
537.709,242.421,65716
537.647,240.263,65178
537.584,238.105,64938
537.522,235.947,64706
537.459,233.788,64244
537.397,231.629,64228
537.335,229.469,63949
537.272,227.308,64131
537.21,225.147,64063
537.148,222.986,63955
537.085,220.824,63691
537.023,218.662,63907
536.96,216.499,63890
536.898,214.335,63787
536.836,212.171,63886
536.773,210.007,63797
536.711,207.842,63796
553.364,768.549,285118
553.301,766.512,285440
553.239,764.475,284496
553.177,762.437,284636
553.114,760.398,284991
553.052,758.359,284501
552.99,756.32,284675
552.927,754.28,284642
552.865,752.24,283203
552.802,750.199,283799
552.74,748.158,282649
552.678,746.116,282377
552.615,744.074,281309
552.553,742.032,281953
552.491,739.989,281331
552.428,737.945,280861
552.366,735.901,279896
552.304,733.857,279527
552.241,731.812,281030
552.179,729.766,280680
552.116,727.721,280377
552.054,725.674,282409
551.992,723.628,280373
551.929,721.58,280660
551.867,719.533,279526
551.805,717.485,279330
551.742,715.436,280081
551.68,713.387,278575
551.617,711.337,279052
551.555,709.287,278614
551.493,707.237,278899
551.43,705.186,278407
551.368,703.135,280150
551.306,701.083,279187
551.243,699.031,279727
551.181,696.978,278087
551.119,694.925,278524
551.056,692.871,278050
550.994,690.817,278502
550.931,688.762,278727
550.869,686.707,277813
550.807,684.651,277702
550.744,682.595,276905
550.682,680.539,277019
550.62,678.482,276584
550.557,676.425,275508
550.495,674.367,274617
550.432,672.308,275370
550.37,670.25,274473
550.308,668.19,273332
550.245,666.131,274032
550.183,664.07,273264
550.121,662.01,272456
550.058,659.948,272392
549.996,657.887,271377
549.933,655.825,272568
549.871,653.762,271009
549.809,651.699,270737
549.746,649.636,271417
549.684,647.572,271246
549.622,645.507,271473
549.559,643.442,271584
549.497,641.377,270858
549.435,639.311,271908
549.372,637.245,271671
549.31,635.178,271889
549.247,633.111,271479
549.185,631.043,270685
549.123,628.975,271300
549.06,626.906,272868
548.998,624.837,272068
548.936,622.768,271278
548.873,620.698,270991
548.811,618.627,270356
548.748,616.556,269682
548.686,614.485,269058
548.624,612.413,268499
548.561,610.34,267673
548.499,608.267,268723
548.437,606.194,267475
548.374,604.12,266646
548.312,602.046,265399
548.249,599.971,264893
548.187,597.896,263108
548.125,595.82,264408
548.062,593.744,262719
548.0,591.667,262487
547.938,589.59,262091
547.875,587.513,260524
547.813,585.434,259784
547.751,583.356,259093
547.688,581.277,258449
547.626,579.197,258811
547.563,577.117,257834
547.501,575.037,257029
547.439,572.956,256978
547.376,570.875,256084
547.314,568.793,256242
547.252,566.71,255594
547.189,564.628,256723
547.127,562.544,256180
547.064,560.461,256342
547.002,558.376,255782
546.94,556.292,255570
546.877,554.206,253860
546.815,552.121,255678
546.753,550.035,254848
546.69,547.948,254367
546.628,545.861,253993
546.565,543.773,253663
546.503,541.685,253509
546.441,539.597,253682
546.378,537.508,252738
546.316,535.418,252513
546.254,533.328,251774
546.191,531.238,252497
546.129,529.147,250256
546.067,527.056,249440
546.004,524.964,248599
545.942,522.871,249789
545.879,520.778,248461
545.817,518.685,247859
545.755,516.591,247985
545.692,514.497,247282
545.63,512.402,247569
545.568,510.307,247278
545.505,508.211,248166
545.443,506.115,249381
545.38,504.019,252285
545.318,501.922,253863
545.256,499.824,255602
545.193,497.726,254506
545.131,495.627,252603
545.069,493.528,251185
545.006,491.429,249926
544.944,489.329,248099
544.881,487.228,246877
544.819,485.127,246635
544.757,483.026,245848
544.694,480.924,245413
544.632,478.821,245728
544.57,476.718,245522
544.507,474.615,244998
544.445,472.511,244445
544.383,470.407,244189
544.32,468.302,244145
544.258,466.197,243558
544.195,464.091,242449
544.133,461.985,241883
544.071,459.878,243217
544.008,457.771,240913
543.946,455.663,240304
543.884,453.555,239964
543.821,451.446,238728
543.759,449.337,237539
543.696,447.227,236959
543.634,445.117,236508
543.572,443.006,235380
543.509,440.895,235612
543.447,438.784,236203
543.385,436.671,235482
543.322,434.559,234016
543.26,432.446,235026
543.198,430.332,234939
543.135,428.218,233852
543.073,426.104,234191
543.01,423.989,234509
542.948,421.873,234985
542.886,419.757,235049
542.823,417.641,234629
542.761,415.524,236275
542.699,413.407,234613
542.636,411.289,235503
542.574,409.17,234989
542.511,407.051,235263
542.449,404.932,234607
542.387,402.812,235535
542.324,400.692,234644
542.262,398.571,234896
542.2,396.45,233797
542.137,394.328,233409
542.075,392.205,232745
542.012,390.083,232268
541.95,387.959,231810
541.888,385.836,231269
541.825,383.711,229929
541.763,381.587,229462
541.701,379.461,229792
541.638,377.336,229277
541.576,375.209,228675
541.514,373.083,227669
541.451,370.955,227194
541.389,368.828,227632
541.326,366.7,227203
541.264,364.571,226928
541.202,362.442,227269
541.139,360.312,226499
541.077,358.182,227566
541.015,356.051,226638
540.952,353.92,225887
540.89,351.789,225689
540.827,349.657,225966
540.765,347.524,225300
540.703,345.391,224178
540.64,343.257,223201
540.578,341.123,222261
540.516,338.989,219694
540.453,336.854,220269
540.391,334.718,217247
540.328,332.582,216473
540.266,330.445,215839
540.204,328.308,213957
540.141,326.171,213859
540.079,324.033,213317
540.017,321.894,212534
539.954,319.755,212380
539.892,317.616,212414
539.83,315.476,214060
539.767,313.335,213035
539.705,311.194,213206
539.642,309.053,213867
539.58,306.911,214330
539.518,304.768,214898
539.455,302.625,213609
539.393,300.482,213280
539.331,298.338,210610
539.268,296.194,208092
539.206,294.049,205572
539.143,291.903,201663
539.081,289.757,198658
539.019,287.611,195400
538.956,285.464,193625
538.894,283.316,192440
538.832,281.169,191317
538.769,279.02,191761
538.707,276.871,192560
538.644,274.722,191340
538.582,272.572,187820
538.52,270.421,178128
538.457,268.271,165140
538.395,266.119,147777
538.333,263.967,130736
538.27,261.815,113550
538.208,259.662,99831
538.146,257.508,88352
538.083,255.355,80370
538.021,253.2,74934
537.958,251.045,71197
537.896,248.89,69177
537.834,246.734,67466
537.771,244.578,66674
537.709,242.421,65746
537.647,240.263,65400
537.584,238.105,65042
537.522,235.947,64716
537.459,233.788,64559
537.397,231.629,64162
537.335,229.469,64144
537.272,227.308,64104
537.21,225.147,64138
537.148,222.986,63851
537.085,220.824,63845
537.023,218.662,63975
536.96,216.499,63853
536.898,214.335,63842
536.836,212.171,63847
536.773,210.007,63735
536.711,207.842,63815
553.364,768.549,286399
553.301,766.512,287639
553.239,764.475,285848
553.177,762.437,285300
553.114,760.398,286784
553.052,758.359,285470
552.99,756.32,286325
552.927,754.28,285756
552.865,752.24,285459
552.802,750.199,284640
552.74,748.158,283918
552.678,746.116,283415
552.615,744.074,282789
552.553,742.032,283136
552.491,739.989,283257
552.428,737.945,282405
552.366,735.901,281760
552.304,733.857,281197
552.241,731.812,281958
552.179,729.766,280040
552.116,727.721,280668
552.054,725.674,280365
551.992,723.628,280354
551.929,721.58,279519
551.867,719.533,280636
551.805,717.485,280867
551.742,715.436,280322
551.68,713.387,280943
551.617,711.337,279728
551.555,709.287,281048
551.493,707.237,279412
551.43,705.186,280481
551.368,703.135,280290
551.306,701.083,279627
551.243,699.031,280473
551.181,696.978,279858
551.119,694.925,279421
551.056,692.871,280364
550.994,690.817,279431
550.931,688.762,279220
550.869,686.707,278923
550.807,684.651,278245
550.744,682.595,279131
550.682,680.539,277725
550.62,678.482,277668
550.557,676.425,276236
550.495,674.367,276603
550.432,672.308,275052
550.37,670.25,276465
550.308,668.19,274149
550.245,666.131,274104
550.183,664.07,273942
550.121,662.01,272944
550.058,659.948,273324
549.996,657.887,273648
549.933,655.825,272231
549.871,653.762,271637
549.809,651.699,272105
549.746,649.636,272409
549.684,647.572,272069
549.622,645.507,271714
549.559,643.442,271671
549.497,641.377,271895
549.435,639.311,271945
549.372,637.245,272348
549.31,635.178,272372
549.247,633.111,271960
549.185,631.043,272632
549.123,628.975,271225
549.06,626.906,272798
548.998,624.837,271920
548.936,622.768,272055
548.873,620.698,271911
548.811,618.627,271812
548.748,616.556,271108
548.686,614.485,269137
548.624,612.413,268842
548.561,610.34,269344
548.499,608.267,268861
548.437,606.194,267357
548.374,604.12,266349
548.312,602.046,265619
548.249,599.971,266915
548.187,597.896,265455
548.125,595.82,264578
548.062,593.744,263253
548.0,591.667,262394
547.938,589.59,263207
547.875,587.513,260912
547.813,585.434,260845
547.751,583.356,259749
547.688,581.277,259552
547.626,579.197,259441
547.563,577.117,257954
547.501,575.037,258148
547.439,572.956,257442
547.376,570.875,256956
547.314,568.793,256534
547.252,566.71,256867
547.189,564.628,256576
547.127,562.544,256747
547.064,560.461,256926
547.002,558.376,256089
546.94,556.292,256123
546.877,554.206,255494
546.815,552.121,255618
546.753,550.035,255959
546.69,547.948,255329
546.628,545.861,254902
546.565,543.773,254783
546.503,541.685,255070
546.441,539.597,254137
546.378,537.508,254541
546.316,535.418,253564
546.254,533.328,253305
546.191,531.238,253178
546.129,529.147,251622
546.067,527.056,250561
546.004,524.964,250184
545.942,522.871,249517
545.879,520.778,249213
545.817,518.685,249036
545.755,516.591,248793
545.692,514.497,248967
545.63,512.402,248042
545.568,510.307,247597
545.505,508.211,249357
545.443,506.115,249581
545.38,504.019,251817
545.318,501.922,253996
545.256,499.824,256562
545.193,497.726,255571
545.131,495.627,253375
545.069,493.528,251732
545.006,491.429,249696
544.944,489.329,249198
544.881,487.228,246785
544.819,485.127,247605
544.757,483.026,245735
544.694,480.924,246300
544.632,478.821,245713
544.57,476.718,246104
544.507,474.615,245010
544.445,472.511,245632
544.383,470.407,245477
544.32,468.302,244169
544.258,466.197,244853
544.195,464.091,243735
544.133,461.985,243601
544.071,459.878,243183
544.008,457.771,241443
543.946,455.663,242239
543.884,453.555,240882
543.821,451.446,239618
543.759,449.337,239228
543.696,447.227,238479
543.634,445.117,237494
543.572,443.006,236566
543.509,440.895,236778
543.447,438.784,235674
543.385,436.671,235530
543.322,434.559,235542
543.26,432.446,235624
543.198,430.332,234472
543.135,428.218,235854
543.073,426.104,234822
543.01,423.989,235908
542.948,421.873,236447
542.886,419.757,235006
542.823,417.641,235790
542.761,415.524,236536
542.699,413.407,236487
542.636,411.289,237541
542.574,409.17,236472
542.511,407.051,235359
542.449,404.932,236046
542.387,402.812,235783
542.324,400.692,235507
542.262,398.571,234817
542.2,396.45,234420
542.137,394.328,234258
542.075,392.205,234736
542.012,390.083,232650
541.95,387.959,232584
541.888,385.836,231149
541.825,383.711,230937
541.763,381.587,229911
541.701,379.461,229863
541.638,377.336,229554
541.576,375.209,229487
541.514,373.083,228375
541.451,370.955,228856
541.389,368.828,228678
541.326,366.7,227652
541.264,364.571,226845
541.202,362.442,227060
541.139,360.312,228232
541.077,358.182,229158
541.015,356.051,227460
540.952,353.92,227958
540.89,351.789,227138
540.827,349.657,226526
540.765,347.524,226346
540.703,345.391,224372
540.64,343.257,223158
540.578,341.123,222813
540.516,338.989,222035
540.453,336.854,219965
540.391,334.718,218182
540.328,332.582,217330
540.266,330.445,216536
540.204,328.308,214927
540.141,326.171,214109
540.079,324.033,212564
540.017,321.894,213556
539.954,319.755,212244
539.892,317.616,213432
539.83,315.476,213321
539.767,313.335,214286
539.705,311.194,215248
539.642,309.053,214689
539.58,306.911,215460
539.518,304.768,215513
539.455,302.625,214218
539.393,300.482,213147
539.331,298.338,211180
539.268,296.194,209092
539.206,294.049,205714
539.143,291.903,202338
539.081,289.757,200063
539.019,287.611,195657
538.956,285.464,193905
538.894,283.316,192702
538.832,281.169,191921
538.769,279.02,192581
538.707,276.871,192842
538.644,274.722,192214
538.582,272.572,187614
538.52,270.421,179260
538.457,268.271,165684
538.395,266.119,148720
538.333,263.967,130339
538.27,261.815,113696
538.208,259.662,99701
538.146,257.508,89167
538.083,255.355,80813
538.021,253.2,75103
537.958,251.045,70989
537.896,248.89,68958
537.834,246.734,67442
537.771,244.578,66291
537.709,242.421,65573
537.647,240.263,65370
537.584,238.105,64960
537.522,235.947,64771
537.459,233.788,64428
537.397,231.629,64216
537.335,229.469,64100
537.272,227.308,63935
537.21,225.147,63940
537.148,222.986,64034
537.085,220.824,63821
537.023,218.662,63837
536.96,216.499,63894
536.898,214.335,63799
536.836,212.171,63859
536.773,210.007,63977
536.711,207.842,63706
553.364,768.549,286978
553.301,766.512,287428
553.239,764.475,288187
553.177,762.437,286284
553.114,760.398,286881
553.052,758.359,286500
552.99,756.32,286271
552.927,754.28,287161
552.865,752.24,285640
552.802,750.199,285211
552.74,748.158,284337
552.678,746.116,284206
552.615,744.074,283877
552.553,742.032,284379
552.491,739.989,283609
552.428,737.945,282310
552.366,735.901,283740
552.304,733.857,282456
552.241,731.812,282764
552.179,729.766,281596
552.116,727.721,281145
552.054,725.674,281598
551.992,723.628,281746
551.929,721.58,281519
551.867,719.533,281488
551.805,717.485,281270
551.742,715.436,282171
551.68,713.387,281951
551.617,711.337,281700
551.555,709.287,280235
551.493,707.237,281392
551.43,705.186,281106
551.368,703.135,280592
551.306,701.083,280841
551.243,699.031,282426
551.181,696.978,281584
551.119,694.925,281483
551.056,692.871,281163
550.994,690.817,281514
550.931,688.762,279424
550.869,686.707,279675
550.807,684.651,278984
550.744,682.595,279013
550.682,680.539,277919
550.62,678.482,279023
550.557,676.425,277140
550.495,674.367,277665
550.432,672.308,277488
550.37,670.25,278186
550.308,668.19,275700
550.245,666.131,275055
550.183,664.07,274566
550.121,662.01,274781
550.058,659.948,274901
549.996,657.887,274425
549.933,655.825,273338
549.871,653.762,273086
549.809,651.699,273596
549.746,649.636,273410
549.684,647.572,272701
549.622,645.507,272836
549.559,643.442,272201
549.497,641.377,273435
549.435,639.311,272383
549.372,637.245,273640
549.31,635.178,273161
549.247,633.111,273819
549.185,631.043,273141
549.123,628.975,272801
549.06,626.906,273809
548.998,624.837,272232
548.936,622.768,272799
548.873,620.698,272018
548.811,618.627,271901
548.748,616.556,271129
548.686,614.485,270998
548.624,612.413,270813
548.561,610.34,269616
548.499,608.267,269615
548.437,606.194,269494
548.374,604.12,268416
548.312,602.046,267241
548.249,599.971,266433
548.187,597.896,266392
548.125,595.82,265077
548.062,593.744,264091
548.0,591.667,263509
547.938,589.59,262271
547.875,587.513,261708
547.813,585.434,261903
547.751,583.356,260906
547.688,581.277,259500
547.626,579.197,260251
547.563,577.117,258910
547.501,575.037,259569
547.439,572.956,258259
547.376,570.875,258711
547.314,568.793,257691
547.252,566.71,257746
547.189,564.628,257878
547.127,562.544,258125
547.064,560.461,257781
547.002,558.376,257454
546.94,556.292,256350
546.877,554.206,255785
546.815,552.121,256838
546.753,550.035,256740
546.69,547.948,256350
546.628,545.861,256132
546.565,543.773,255896
546.503,541.685,255908
546.441,539.597,255383
546.378,537.508,254162
546.316,535.418,253450
546.254,533.328,254296
546.191,531.238,253342
546.129,529.147,251405
546.067,527.056,252905
546.004,524.964,251804
545.942,522.871,249912
545.879,520.778,249854
545.817,518.685,250059
545.755,516.591,248898
545.692,514.497,249160
545.63,512.402,248667
545.568,510.307,249656
545.505,508.211,249835
545.443,506.115,250827
545.38,504.019,252378
545.318,501.922,253670
545.256,499.824,256977
545.193,497.726,256872
545.131,495.627,254536
545.069,493.528,252671
545.006,491.429,251172
544.944,489.329,250140
544.881,487.228,247532
544.819,485.127,246208
544.757,483.026,246618
544.694,480.924,247019
544.632,478.821,246929
544.57,476.718,246264
544.507,474.615,245429
544.445,472.511,246232
544.383,470.407,245247
544.32,468.302,245011
544.258,466.197,245168
544.195,464.091,243209
544.133,461.985,243616
544.071,459.878,243487
544.008,457.771,243287
543.946,455.663,241752
543.884,453.555,241139
543.821,451.446,240442
543.759,449.337,239887
543.696,447.227,240431
543.634,445.117,238178
543.572,443.006,238081
543.509,440.895,237785
543.447,438.784,236980
543.385,436.671,235999
543.322,434.559,237379
543.26,432.446,235534
543.198,430.332,235801
543.135,428.218,235952
543.073,426.104,236417
543.01,423.989,236491
542.948,421.873,236979
542.886,419.757,237007
542.823,417.641,236304
542.761,415.524,237380
542.699,413.407,237945
542.636,411.289,237135
542.574,409.17,237484
542.511,407.051,236218
542.449,404.932,236995
542.387,402.812,236783
542.324,400.692,235736
542.262,398.571,235266
542.2,396.45,235192
542.137,394.328,235766
542.075,392.205,234932
542.012,390.083,233623
541.95,387.959,232740
541.888,385.836,232252
541.825,383.711,231673
541.763,381.587,231554
541.701,379.461,231013
541.638,377.336,230323
541.576,375.209,229196
541.514,373.083,229024
541.451,370.955,229073
541.389,368.828,229467
541.326,366.7,228468
541.264,364.571,229359
541.202,362.442,228805
541.139,360.312,228403
541.077,358.182,228604
541.015,356.051,228841
540.952,353.92,227654
540.89,351.789,227797
540.827,349.657,226856
540.765,347.524,227116
540.703,345.391,225130
540.64,343.257,223923
540.578,341.123,223452
540.516,338.989,221996
540.453,336.854,220777
540.391,334.718,219161
540.328,332.582,218057
540.266,330.445,216991
540.204,328.308,215762
540.141,326.171,215607
540.079,324.033,213798
540.017,321.894,213926
539.954,319.755,213974
539.892,317.616,214055
539.83,315.476,214730
539.767,313.335,214072
539.705,311.194,215258
539.642,309.053,216962
539.58,306.911,216267
539.518,304.768,217070
539.455,302.625,215281
539.393,300.482,214138
539.331,298.338,211769
539.268,296.194,208902
539.206,294.049,206253
539.143,291.903,202732
539.081,289.757,199968
539.019,287.611,197229
538.956,285.464,194565
538.894,283.316,193824
538.832,281.169,192943
538.769,279.02,193652
538.707,276.871,193367
538.644,274.722,192097
538.582,272.572,187659
538.52,270.421,179461
538.457,268.271,165519
538.395,266.119,148465
538.333,263.967,131397
538.27,261.815,113866
538.208,259.662,99965
538.146,257.508,88572
538.083,255.355,80623
538.021,253.2,75201
537.958,251.045,71213
537.896,248.89,68985
537.834,246.734,67470
537.771,244.578,66520
537.709,242.421,65599
537.647,240.263,65231
537.584,238.105,64888
537.522,235.947,64756
537.459,233.788,64640
537.397,231.629,64214
537.335,229.469,63993
537.272,227.308,64165
537.21,225.147,64074
537.148,222.986,64070
537.085,220.824,63945
537.023,218.662,63842
536.96,216.499,63785
536.898,214.335,63832
536.836,212.171,63949
536.773,210.007,63708
536.711,207.842,63604
536.661,206.11,63653