File: tomke/20240809/raw_data/Si_onTiO2_70mA_30mW_30sec_5acc_545nm_bg.txt
Wavelength(nm), Raman shift(cm^-1), Intensity(counts)
553.364,768.549,187586
553.301,766.512,187870
553.239,764.475,187815
553.177,762.437,187144
553.114,760.398,187505
553.052,758.359,188006
552.99,756.32,186870
552.927,754.28,186791
552.865,752.24,186449
552.802,750.199,186607
552.74,748.158,186754
552.678,746.116,185756
552.615,744.074,187244
552.553,742.032,186316
552.491,739.989,185946
552.428,737.945,185756
552.366,735.901,184564
552.304,733.857,185496
552.241,731.812,185786
552.179,729.766,185551
552.116,727.721,184869
552.054,725.674,184279
551.992,723.628,184831
551.929,721.58,184844
551.867,719.533,184107
551.805,717.485,184794
551.742,715.436,184202
551.68,713.387,185738
551.617,711.337,185732
551.555,709.287,184942
551.493,707.237,184353
551.43,705.186,184290
551.368,703.135,185149
551.306,701.083,184987
551.243,699.031,184231
551.181,696.978,183785
551.119,694.925,184430
551.056,692.871,184268
550.994,690.817,184971
550.931,688.762,184170
550.869,686.707,183747
550.807,684.651,184314
550.744,682.595,183394
550.682,680.539,182701
550.62,678.482,182758
550.557,676.425,182343
550.495,674.367,182002
550.432,672.308,182297
550.37,670.25,181668
550.308,668.19,181564
550.245,666.131,180927
550.183,664.07,180889
550.121,662.01,180640
550.058,659.948,181325
549.996,657.887,180516
549.933,655.825,179841
549.871,653.762,179511
549.809,651.699,179940
549.746,649.636,179384
549.684,647.572,180155
549.622,645.507,179959
549.559,643.442,179590
549.497,641.377,180021
549.435,639.311,180602
549.372,637.245,180353
549.31,635.178,179472
549.247,633.111,180185
549.185,631.043,179188
549.123,628.975,179576
549.06,626.906,179394
548.998,624.837,179034
548.936,622.768,179877
548.873,620.698,180158
548.811,618.627,179360
548.748,616.556,178696
548.686,614.485,179489
548.624,612.413,179145
548.561,610.34,177756
548.499,608.267,177469
548.437,606.194,176475
548.374,604.12,177162
548.312,602.046,175957
548.249,599.971,175679
548.187,597.896,175374
548.125,595.82,175165
548.062,593.744,174406
548.0,591.667,173962
547.938,589.59,173373
547.875,587.513,173296
547.813,585.434,173192
547.751,583.356,172165
547.688,581.277,172159
547.626,579.197,171713
547.563,577.117,171767
547.501,575.037,171235
547.439,572.956,171584
547.376,570.875,170413
547.314,568.793,170210
547.252,566.71,169801
547.189,564.628,170015
547.127,562.544,170768
547.064,560.461,170646
547.002,558.376,170241
546.94,556.292,170285
546.877,554.206,169661
546.815,552.121,170709
546.753,550.035,170200
546.69,547.948,168819
546.628,545.861,168937
546.565,543.773,168837
546.503,541.685,169437
546.441,539.597,169018
546.378,537.508,168113
546.316,535.418,168217
546.254,533.328,167721
546.191,531.238,167290
546.129,529.147,166853
546.067,527.056,166613
546.004,524.964,166435
545.942,522.871,165040
545.879,520.778,165005
545.817,518.685,164230
545.755,516.591,163945
545.692,514.497,164718
545.63,512.402,163621
545.568,510.307,163028
545.505,508.211,162398
545.443,506.115,162909
545.38,504.019,162767
545.318,501.922,162438
545.256,499.824,162630
545.193,497.726,163155
545.131,495.627,161556
545.069,493.528,162344
545.006,491.429,162116
544.944,489.329,162955
544.881,487.228,162295
544.819,485.127,161736
544.757,483.026,162699
544.694,480.924,162553
544.632,478.821,162484
544.57,476.718,162292
544.507,474.615,162844
544.445,472.511,162177
544.383,470.407,162348
544.32,468.302,161982
544.258,466.197,161880
544.195,464.091,161740
544.133,461.985,161466
544.071,459.878,161443
544.008,457.771,160911
543.946,455.663,160081
543.884,453.555,160325
543.821,451.446,159698
543.759,449.337,159091
543.696,447.227,159018
543.634,445.117,158312
543.572,443.006,158565
543.509,440.895,158553
543.447,438.784,157878
543.385,436.671,157676
543.322,434.559,157471
543.26,432.446,158089
543.198,430.332,156928
543.135,428.218,157657
543.073,426.104,157498
543.01,423.989,156910
542.948,421.873,157089
542.886,419.757,157837
542.823,417.641,157274
542.761,415.524,157720
542.699,413.407,158019
542.636,411.289,157602
542.574,409.17,157523
542.511,407.051,157592
542.449,404.932,157734
542.387,402.812,157645
542.324,400.692,156558
542.262,398.571,156625
542.2,396.45,157295
542.137,394.328,156514
542.075,392.205,155605
542.012,390.083,156231
541.95,387.959,156171
541.888,385.836,155261
541.825,383.711,154813
541.763,381.587,154662
541.701,379.461,154071
541.638,377.336,153816
541.576,375.209,153229
541.514,373.083,153748
541.451,370.955,153684
541.389,368.828,153205
541.326,366.7,152836
541.264,364.571,152898
541.202,362.442,152810
541.139,360.312,152170
541.077,358.182,152606
541.015,356.051,152760
540.952,353.92,152212
540.89,351.789,152346
540.827,349.657,151804
540.765,347.524,151563
540.703,345.391,151066
540.64,343.257,150331
540.578,341.123,149852
540.516,338.989,149623
540.453,336.854,148676
540.391,334.718,146775
540.328,332.582,146264
540.266,330.445,145802
540.204,328.308,144641
540.141,326.171,145232
540.079,324.033,144092
540.017,321.894,145197
539.954,319.755,143375
539.892,317.616,144558
539.83,315.476,144132
539.767,313.335,144306
539.705,311.194,145217
539.642,309.053,144998
539.58,306.911,145407
539.518,304.768,145692
539.455,302.625,145189
539.393,300.482,143851
539.331,298.338,142513
539.268,296.194,141343
539.206,294.049,139984
539.143,291.903,137405
539.081,289.757,136276
539.019,287.611,135008
538.956,285.464,132937
538.894,283.316,132460
538.832,281.169,131973
538.769,279.02,132013
538.707,276.871,132739
538.644,274.722,132150
538.582,272.572,129514
538.52,270.421,124964
538.457,268.271,117661
538.395,266.119,108559
538.333,263.967,99122
538.27,261.815,89605
538.208,259.662,81873
538.146,257.508,76254
538.083,255.355,71917
538.021,253.2,68932
537.958,251.045,66820
537.896,248.89,65543
537.834,246.734,64786
537.771,244.578,63880
537.709,242.421,63619
537.647,240.263,63418
537.584,238.105,63163
537.522,235.947,63076
537.459,233.788,62874
537.397,231.629,62955
537.335,229.469,62820
537.272,227.308,62746
537.21,225.147,62645
537.148,222.986,62804
537.085,220.824,62672
537.023,218.662,62579
536.96,216.499,62528
536.898,214.335,62545
536.836,212.171,62392
536.773,210.007,62542
536.711,207.842,62653
553.364,768.549,191057
553.301,766.512,191837
553.239,764.475,191893
553.177,762.437,191398
553.114,760.398,191138
553.052,758.359,190788
552.99,756.32,190595
552.927,754.28,191190
552.865,752.24,190195
552.802,750.199,190298
552.74,748.158,191501
552.678,746.116,189491
552.615,744.074,189816
552.553,742.032,190214
552.491,739.989,190182
552.428,737.945,188152
552.366,735.901,189429
552.304,733.857,188902
552.241,731.812,189086
552.179,729.766,189743
552.116,727.721,188318
552.054,725.674,188392
551.992,723.628,187709
551.929,721.58,187926
551.867,719.533,188056
551.805,717.485,187975
551.742,715.436,188591
551.68,713.387,187440
551.617,711.337,188423
551.555,709.287,188098
551.493,707.237,187804
551.43,705.186,188454
551.368,703.135,188429
551.306,701.083,188143
551.243,699.031,188759
551.181,696.978,188265
551.119,694.925,187489
551.056,692.871,187887
550.994,690.817,188250
550.931,688.762,187183
550.869,686.707,186882
550.807,684.651,187065
550.744,682.595,186767
550.682,680.539,187171
550.62,678.482,187066
550.557,676.425,185514
550.495,674.367,185702
550.432,672.308,185477
550.37,670.25,184934
550.308,668.19,183897
550.245,666.131,185171
550.183,664.07,183534
550.121,662.01,184653
550.058,659.948,184542
549.996,657.887,183594
549.933,655.825,183413
549.871,653.762,183970
549.809,651.699,183695
549.746,649.636,183175
549.684,647.572,183241
549.622,645.507,183378
549.559,643.442,183318
549.497,641.377,182361
549.435,639.311,182897
549.372,637.245,183371
549.31,635.178,182937
549.247,633.111,183900
549.185,631.043,183241
549.123,628.975,183559
549.06,626.906,182698
548.998,624.837,183686
548.936,622.768,182621
548.873,620.698,183226
548.811,618.627,182743
548.748,616.556,182256
548.686,614.485,182376
548.624,612.413,182231
548.561,610.34,180926
548.499,608.267,181443
548.437,606.194,180662
548.374,604.12,180279
548.312,602.046,179702
548.249,599.971,179601
548.187,597.896,180076
548.125,595.82,178714
548.062,593.744,178333
548.0,591.667,178386
547.938,589.59,177475
547.875,587.513,176307
547.813,585.434,176624
547.751,583.356,175706
547.688,581.277,175515
547.626,579.197,174809
547.563,577.117,174106
547.501,575.037,175005
547.439,572.956,174845
547.376,570.875,173927
547.314,568.793,174061
547.252,566.71,174124
547.189,564.628,174595
547.127,562.544,173225
547.064,560.461,173777
547.002,558.376,173160
546.94,556.292,174045
546.877,554.206,173143
546.815,552.121,173894
546.753,550.035,173349
546.69,547.948,172971
546.628,545.861,173452
546.565,543.773,173257
546.503,541.685,171982
546.441,539.597,172312
546.378,537.508,171855
546.316,535.418,171059
546.254,533.328,170896
546.191,531.238,170095
546.129,529.147,168896
546.067,527.056,169467
546.004,524.964,169300
545.942,522.871,169051
545.879,520.778,167702
545.817,518.685,168091
545.755,516.591,167384
545.692,514.497,167011
545.63,512.402,166665
545.568,510.307,166385
545.505,508.211,166344
545.443,506.115,166273
545.38,504.019,165865
545.318,501.922,165329
545.256,499.824,165416
545.193,497.726,165389
545.131,495.627,166195
545.069,493.528,165086
545.006,491.429,165436
544.944,489.329,165503
544.881,487.228,165485
544.819,485.127,165392
544.757,483.026,165210
544.694,480.924,166056
544.632,478.821,166438
544.57,476.718,165614
544.507,474.615,165837
544.445,472.511,165609
544.383,470.407,165540
544.32,468.302,165763
544.258,466.197,165102
544.195,464.091,165425
544.133,461.985,164285
544.071,459.878,164714
544.008,457.771,163956
543.946,455.663,164153
543.884,453.555,163322
543.821,451.446,162855
543.759,449.337,162641
543.696,447.227,162081
543.634,445.117,161505
543.572,443.006,161516
543.509,440.895,161018
543.447,438.784,161205
543.385,436.671,160618
543.322,434.559,160886
543.26,432.446,160964
543.198,430.332,160587
543.135,428.218,160095
543.073,426.104,160112
543.01,423.989,160599
542.948,421.873,160450
542.886,419.757,161009
542.823,417.641,160627
542.761,415.524,160020
542.699,413.407,160110
542.636,411.289,160691
542.574,409.17,160556
542.511,407.051,160936
542.449,404.932,160204
542.387,402.812,161279
542.324,400.692,159812
542.262,398.571,160222
542.2,396.45,159424
542.137,394.328,159340
542.075,392.205,159188
542.012,390.083,158875
541.95,387.959,158663
541.888,385.836,158065
541.825,383.711,157681
541.763,381.587,157057
541.701,379.461,156604
541.638,377.336,156750
541.576,375.209,157009
541.514,373.083,155928
541.451,370.955,155335
541.389,368.828,155954
541.326,366.7,155940
541.264,364.571,155625
541.202,362.442,156092
541.139,360.312,154981
541.077,358.182,155823
541.015,356.051,155748
540.952,353.92,155340
540.89,351.789,155150
540.827,349.657,154787
540.765,347.524,154879
540.703,345.391,153664
540.64,343.257,153608
540.578,341.123,152959
540.516,338.989,151926
540.453,336.854,150733
540.391,334.718,150600
540.328,332.582,149319
540.266,330.445,149006
540.204,328.308,148531
540.141,326.171,147657
540.079,324.033,147101
540.017,321.894,147125
539.954,319.755,146659
539.892,317.616,146312
539.83,315.476,147094
539.767,313.335,146646
539.705,311.194,147803
539.642,309.053,147670
539.58,306.911,147890
539.518,304.768,148699
539.455,302.625,147768
539.393,300.482,146317
539.331,298.338,145409
539.268,296.194,143877
539.206,294.049,142258
539.143,291.903,139880
539.081,289.757,138079
539.019,287.611,136805
538.956,285.464,135319
538.894,283.316,134681
538.832,281.169,134491
538.769,279.02,134518
538.707,276.871,135090
538.644,274.722,134937
538.582,272.572,131514
538.52,270.421,127295
538.457,268.271,118999
538.395,266.119,109473
538.333,263.967,99654
538.27,261.815,90828
538.208,259.662,82703
538.146,257.508,76630
538.083,255.355,72150
538.021,253.2,69256
537.958,251.045,67002
537.896,248.89,65638
537.834,246.734,64873
537.771,244.578,64086
537.709,242.421,63725
537.647,240.263,63320
537.584,238.105,63327
537.522,235.947,63315
537.459,233.788,63071
537.397,231.629,62939
537.335,229.469,62860
537.272,227.308,62827
537.21,225.147,62782
537.148,222.986,62800
537.085,220.824,62651
537.023,218.662,62742
536.96,216.499,62578
536.898,214.335,62769
536.836,212.171,62625
536.773,210.007,62508
536.711,207.842,62596
553.364,768.549,200001
553.301,766.512,200782
553.239,764.475,200460
553.177,762.437,200493
553.114,760.398,201428
553.052,758.359,200065
552.99,756.32,200088
552.927,754.28,200588
552.865,752.24,199728
552.802,750.199,199108
552.74,748.158,200140
552.678,746.116,198130
552.615,744.074,198489
552.553,742.032,199265
552.491,739.989,199272
552.428,737.945,198449
552.366,735.901,198019
552.304,733.857,197544
552.241,731.812,198383
552.179,729.766,197275
552.116,727.721,198754
552.054,725.674,197692
551.992,723.628,196721
551.929,721.58,197374
551.867,719.533,197961
551.805,717.485,196381
551.742,715.436,197200
551.68,713.387,197490
551.617,711.337,197216
551.555,709.287,197449
551.493,707.237,197534
551.43,705.186,197489
551.368,703.135,197062
551.306,701.083,197343
551.243,699.031,198134
551.181,696.978,197067
551.119,694.925,196337
551.056,692.871,197282
550.994,690.817,196671
550.931,688.762,196138
550.869,686.707,195396
550.807,684.651,195795
550.744,682.595,195600
550.682,680.539,195187
550.62,678.482,195772
550.557,676.425,195804
550.495,674.367,194905
550.432,672.308,194504
550.37,670.25,194793
550.308,668.19,193350
550.245,666.131,193566
550.183,664.07,193191
550.121,662.01,193184
550.058,659.948,192794
549.996,657.887,192515
549.933,655.825,192258
549.871,653.762,191944
549.809,651.699,191881
549.746,649.636,192740
549.684,647.572,191551
549.622,645.507,191481
549.559,643.442,192545
549.497,641.377,192700
549.435,639.311,191494
549.372,637.245,191162
549.31,635.178,191061
549.247,633.111,192155
549.185,631.043,191387
549.123,628.975,192308
549.06,626.906,191517
548.998,624.837,191901
548.936,622.768,191638
548.873,620.698,190926
548.811,618.627,191357
548.748,616.556,190955
548.686,614.485,190956
548.624,612.413,190705
548.561,610.34,190157
548.499,608.267,189461
548.437,606.194,190002
548.374,604.12,188845
548.312,602.046,188117
548.249,599.971,187629
548.187,597.896,186618
548.125,595.82,186398
548.062,593.744,186116
548.0,591.667,186048
547.938,589.59,184922
547.875,587.513,184732
547.813,585.434,185495
547.751,583.356,184492
547.688,581.277,183107
547.626,579.197,182849
547.563,577.117,182752
547.501,575.037,183354
547.439,572.956,182332
547.376,570.875,182504
547.314,568.793,181866
547.252,566.71,181437
547.189,564.628,182353
547.127,562.544,181133
547.064,560.461,181849
547.002,558.376,181142
546.94,556.292,180755
546.877,554.206,181196
546.815,552.121,181532
546.753,550.035,180777
546.69,547.948,180920
546.628,545.861,180854
546.565,543.773,180435
546.503,541.685,179994
546.441,539.597,179621
546.378,537.508,179696
546.316,535.418,178947
546.254,533.328,178332
546.191,531.238,177812
546.129,529.147,177278
546.067,527.056,177367
546.004,524.964,176859
545.942,522.871,176742
545.879,520.778,176117
545.817,518.685,174938
545.755,516.591,175234
545.692,514.497,174761
545.63,512.402,174883
545.568,510.307,174208
545.505,508.211,173032
545.443,506.115,173438
545.38,504.019,173083
545.318,501.922,172313
545.256,499.824,173297
545.193,497.726,173089
545.131,495.627,172853
545.069,493.528,173013
545.006,491.429,173557
544.944,489.329,172838
544.881,487.228,173926
544.819,485.127,173638
544.757,483.026,172481
544.694,480.924,173156
544.632,478.821,173084
544.57,476.718,173365
544.507,474.615,173156
544.445,472.511,173587
544.383,470.407,173200
544.32,468.302,172425
544.258,466.197,172119
544.195,464.091,171633
544.133,461.985,172129
544.071,459.878,171830
544.008,457.771,171481
543.946,455.663,171200
543.884,453.555,170759
543.821,451.446,169736
543.759,449.337,169886
543.696,447.227,168502
543.634,445.117,168934
543.572,443.006,168913
543.509,440.895,169223
543.447,438.784,168051
543.385,436.671,167384
543.322,434.559,167996
543.26,432.446,167446
543.198,430.332,167312
543.135,428.218,167605
543.073,426.104,166836
543.01,423.989,167674
542.948,421.873,166885
542.886,419.757,167959
542.823,417.641,167077
542.761,415.524,167852
542.699,413.407,168091
542.636,411.289,167881
542.574,409.17,168476
542.511,407.051,167308
542.449,404.932,167582
542.387,402.812,167456
542.324,400.692,167114
542.262,398.571,167497
542.2,396.45,166343
542.137,394.328,166177
542.075,392.205,165446
542.012,390.083,165537
541.95,387.959,165410
541.888,385.836,165220
541.825,383.711,164083
541.763,381.587,164331
541.701,379.461,162595
541.638,377.336,164143
541.576,375.209,163526
541.514,373.083,163210
541.451,370.955,162702
541.389,368.828,163112
541.326,366.7,163145
541.264,364.571,162656
541.202,362.442,162662
541.139,360.312,162688
541.077,358.182,162015
541.015,356.051,162482
540.952,353.92,161570
540.89,351.789,161945
540.827,349.657,161083
540.765,347.524,161859
540.703,345.391,160475
540.64,343.257,159781
540.578,341.123,159565
540.516,338.989,158649
540.453,336.854,157815
540.391,334.718,157086
540.328,332.582,155525
540.266,330.445,154657
540.204,328.308,154413
540.141,326.171,154066
540.079,324.033,152582
540.017,321.894,152934
539.954,319.755,152509
539.892,317.616,153652
539.83,315.476,153978
539.767,313.335,153573
539.705,311.194,153747
539.642,309.053,154477
539.58,306.911,154638
539.518,304.768,153860
539.455,302.625,153858
539.393,300.482,153047
539.331,298.338,151399
539.268,296.194,150788
539.206,294.049,148431
539.143,291.903,145712
539.081,289.757,144337
539.019,287.611,142448
538.956,285.464,140344
538.894,283.316,140153
538.832,281.169,140405
538.769,279.02,139286
538.707,276.871,140008
538.644,274.722,139408
538.582,272.572,137586
538.52,270.421,131895
538.457,268.271,123108
538.395,266.119,113093
538.333,263.967,102816
538.27,261.815,93013
538.208,259.662,84666
538.146,257.508,77880
538.083,255.355,72788
538.021,253.2,69639
537.958,251.045,67337
537.896,248.89,65948
537.834,246.734,64940
537.771,244.578,64365
537.709,242.421,64029
537.647,240.263,63732
537.584,238.105,63389
537.522,235.947,63372
537.459,233.788,63369
537.397,231.629,63122
537.335,229.469,63068
537.272,227.308,63090
537.21,225.147,62931
537.148,222.986,62927
537.085,220.824,62758
537.023,218.662,62770
536.96,216.499,62824
536.898,214.335,62743
536.836,212.171,62632
536.773,210.007,62830
536.711,207.842,62719
553.364,768.549,204030
553.301,766.512,204075
553.239,764.475,203770
553.177,762.437,203240
553.114,760.398,204298
553.052,758.359,203787
552.99,756.32,203761
552.927,754.28,204122
552.865,752.24,202286
552.802,750.199,203092
552.74,748.158,202416
552.678,746.116,202037
552.615,744.074,202092
552.553,742.032,202216
552.491,739.989,201291
552.428,737.945,201067
552.366,735.901,200906
552.304,733.857,200748
552.241,731.812,200865
552.179,729.766,200091
552.116,727.721,200507
552.054,725.674,199254
551.992,723.628,200527
551.929,721.58,201284
551.867,719.533,200457
551.805,717.485,199409
551.742,715.436,199858
551.68,713.387,200180
551.617,711.337,200266
551.555,709.287,200134
551.493,707.237,200785
551.43,705.186,199889
551.368,703.135,200526
551.306,701.083,200510
551.243,699.031,199693
551.181,696.978,200351
551.119,694.925,199716
551.056,692.871,200628
550.994,690.817,200386
550.931,688.762,199439
550.869,686.707,199581
550.807,684.651,198718
550.744,682.595,198671
550.682,680.539,198948
550.62,678.482,197500
550.557,676.425,198106
550.495,674.367,198081
550.432,672.308,197491
550.37,670.25,197297
550.308,668.19,197310
550.245,666.131,196448
550.183,664.07,195470
550.121,662.01,195805
550.058,659.948,196811
549.996,657.887,195189
549.933,655.825,194003
549.871,653.762,194735
549.809,651.699,195044
549.746,649.636,195688
549.684,647.572,194765
549.622,645.507,194351
549.559,643.442,193704
549.497,641.377,195021
549.435,639.311,194411
549.372,637.245,195079
549.31,635.178,194854
549.247,633.111,195700
549.185,631.043,194591
549.123,628.975,194816
549.06,626.906,194999
548.998,624.837,194660
548.936,622.768,194646
548.873,620.698,194544
548.811,618.627,194174
548.748,616.556,192899
548.686,614.485,193632
548.624,612.413,193425
548.561,610.34,192955
548.499,608.267,192332
548.437,606.194,191928
548.374,604.12,191321
548.312,602.046,190822
548.249,599.971,191573
548.187,597.896,189600
548.125,595.82,190118
548.062,593.744,188867
548.0,591.667,189352
547.938,589.59,187937
547.875,587.513,187425
547.813,585.434,187882
547.751,583.356,186073
547.688,581.277,185778
547.626,579.197,186306
547.563,577.117,185616
547.501,575.037,185081
547.439,572.956,185255
547.376,570.875,184259
547.314,568.793,184323
547.252,566.71,183828
547.189,564.628,184494
547.127,562.544,183709
547.064,560.461,183511
547.002,558.376,184521
546.94,556.292,183566
546.877,554.206,184068
546.815,552.121,183425
546.753,550.035,184053
546.69,547.948,183615
546.628,545.861,183559
546.565,543.773,183578
546.503,541.685,182591
546.441,539.597,183072
546.378,537.508,182642
546.316,535.418,181865
546.254,533.328,181913
546.191,531.238,181908
546.129,529.147,179596
546.067,527.056,180172
546.004,524.964,179386
545.942,522.871,178674
545.879,520.778,177972
545.817,518.685,178516
545.755,516.591,178250
545.692,514.497,177642
545.63,512.402,177218
545.568,510.307,177000
545.505,508.211,175937
545.443,506.115,175372
545.38,504.019,176292
545.318,501.922,174854
545.256,499.824,176134
545.193,497.726,175576
545.131,495.627,174932
545.069,493.528,174539
545.006,491.429,176024
544.944,489.329,175463
544.881,487.228,175407
544.819,485.127,175728
544.757,483.026,176080
544.694,480.924,175821
544.632,478.821,176053
544.57,476.718,176075
544.507,474.615,176044
544.445,472.511,176673
544.383,470.407,176758
544.32,468.302,176269
544.258,466.197,174661
544.195,464.091,174965
544.133,461.985,174405
544.071,459.878,174073
544.008,457.771,174292
543.946,455.663,173434
543.884,453.555,173024
543.821,451.446,172987
543.759,449.337,172583
543.696,447.227,172166
543.634,445.117,171205
543.572,443.006,171203
543.509,440.895,170769
543.447,438.784,170831
543.385,436.671,170068
543.322,434.559,170348
543.26,432.446,169483
543.198,430.332,169826
543.135,428.218,169670
543.073,426.104,169412
543.01,423.989,169239
542.948,421.873,170040
542.886,419.757,170306
542.823,417.641,170505
542.761,415.524,170394
542.699,413.407,170971
542.636,411.289,170652
542.574,409.17,170392
542.511,407.051,169310
542.449,404.932,170351
542.387,402.812,170694
542.324,400.692,169741
542.262,398.571,169063
542.2,396.45,169081
542.137,394.328,168611
542.075,392.205,169233
542.012,390.083,168387
541.95,387.959,167379
541.888,385.836,167422
541.825,383.711,166340
541.763,381.587,166835
541.701,379.461,166281
541.638,377.336,165566
541.576,375.209,166289
541.514,373.083,165797
541.451,370.955,164725
541.389,368.828,165075
541.326,366.7,165051
541.264,364.571,164568
541.202,362.442,164198
541.139,360.312,165829
541.077,358.182,164899
541.015,356.051,165245
540.952,353.92,164598
540.89,351.789,164397
540.827,349.657,164431
540.765,347.524,162788
540.703,345.391,162513
540.64,343.257,161684
540.578,341.123,161629
540.516,338.989,160725
540.453,336.854,159843
540.391,334.718,158637
540.328,332.582,158153
540.266,330.445,157542
540.204,328.308,156599
540.141,326.171,156057
540.079,324.033,155381
540.017,321.894,155498
539.954,319.755,155076
539.892,317.616,155938
539.83,315.476,155285
539.767,313.335,155855
539.705,311.194,155804
539.642,309.053,156434
539.58,306.911,157125
539.518,304.768,156226
539.455,302.625,155667
539.393,300.482,154579
539.331,298.338,153608
539.268,296.194,152714
539.206,294.049,150311
539.143,291.903,148627
539.081,289.757,146120
539.019,287.611,144431
538.956,285.464,142274
538.894,283.316,141855
538.832,281.169,141426
538.769,279.02,141907
538.707,276.871,141624
538.644,274.722,141501
538.582,272.572,138782
538.52,270.421,133387
538.457,268.271,125256
538.395,266.119,114672
538.333,263.967,103835
538.27,261.815,93882
538.208,259.662,84981
538.146,257.508,78302
538.083,255.355,73085
538.021,253.2,69691
537.958,251.045,67499
537.896,248.89,66231
537.834,246.734,65141
537.771,244.578,64540
537.709,242.421,64086
537.647,240.263,63729
537.584,238.105,63473
537.522,235.947,63417
537.459,233.788,63359
537.397,231.629,63280
537.335,229.469,63081
537.272,227.308,63061
537.21,225.147,62991
537.148,222.986,62885
537.085,220.824,62781
537.023,218.662,62716
536.96,216.499,62940
536.898,214.335,62856
536.836,212.171,62659
536.773,210.007,62825
536.711,207.842,62588
553.364,768.549,209740
553.301,766.512,209794
553.239,764.475,208759
553.177,762.437,209694
553.114,760.398,209249
553.052,758.359,208749
552.99,756.32,209715
552.927,754.28,208452
552.865,752.24,208543
552.802,750.199,208359
552.74,748.158,208518
552.678,746.116,207712
552.615,744.074,207491
552.553,742.032,207613
552.491,739.989,207205
552.428,737.945,207237
552.366,735.901,207168
552.304,733.857,206794
552.241,731.812,206512
552.179,729.766,207168
552.116,727.721,207300
552.054,725.674,205910
551.992,723.628,204608
551.929,721.58,206484
551.867,719.533,205816
551.805,717.485,205707
551.742,715.436,205620
551.68,713.387,204764
551.617,711.337,205433
551.555,709.287,205461
551.493,707.237,205485
551.43,705.186,205750
551.368,703.135,205835
551.306,701.083,205654
551.243,699.031,205734
551.181,696.978,205232
551.119,694.925,204800
551.056,692.871,205265
550.994,690.817,205030
550.931,688.762,204987
550.869,686.707,204416
550.807,684.651,204077
550.744,682.595,204160
550.682,680.539,204496
550.62,678.482,204642
550.557,676.425,202856
550.495,674.367,203483
550.432,672.308,202923
550.37,670.25,202957
550.308,668.19,200963
550.245,666.131,202358
550.183,664.07,201709
550.121,662.01,201538
550.058,659.948,202169
549.996,657.887,200561
549.933,655.825,200017
549.871,653.762,200299
549.809,651.699,200477
549.746,649.636,200134
549.684,647.572,200375
549.622,645.507,199602
549.559,643.442,200436
549.497,641.377,200007
549.435,639.311,201592
549.372,637.245,199779
549.31,635.178,199669
549.247,633.111,200486
549.185,631.043,199515
549.123,628.975,200401
549.06,626.906,200055
548.998,624.837,200676
548.936,622.768,199065
548.873,620.698,199486
548.811,618.627,199594
548.748,616.556,199236
548.686,614.485,198457
548.624,612.413,198631
548.561,610.34,198151
548.499,608.267,197755
548.437,606.194,197607
548.374,604.12,197056
548.312,602.046,196692
548.249,599.971,195657
548.187,597.896,194587
548.125,595.82,194699
548.062,593.744,194414
548.0,591.667,193640
547.938,589.59,193502
547.875,587.513,192794
547.813,585.434,191990
547.751,583.356,191394
547.688,581.277,191264
547.626,579.197,191175
547.563,577.117,190069
547.501,575.037,190884
547.439,572.956,190007
547.376,570.875,189839
547.314,568.793,190344
547.252,566.71,189486
547.189,564.628,189959
547.127,562.544,189340
547.064,560.461,189777
547.002,558.376,189053
546.94,556.292,188988
546.877,554.206,188771
546.815,552.121,188866
546.753,550.035,188422
546.69,547.948,188284
546.628,545.861,188534
546.565,543.773,187758
546.503,541.685,187818
546.441,539.597,187914
546.378,537.508,187336
546.316,535.418,186337
546.254,533.328,186383
546.191,531.238,186448
546.129,529.147,185392
546.067,527.056,184467
546.004,524.964,184586
545.942,522.871,183334
545.879,520.778,183130
545.817,518.685,182670
545.755,516.591,183430
545.692,514.497,181045
545.63,512.402,181374
545.568,510.307,181071
545.505,508.211,181359
545.443,506.115,180226
545.38,504.019,180469
545.318,501.922,180143
545.256,499.824,180909
545.193,497.726,180224
545.131,495.627,179334
545.069,493.528,180227
545.006,491.429,180666
544.944,489.329,179948
544.881,487.228,179669
544.819,485.127,180670
544.757,483.026,180867
544.694,480.924,180471
544.632,478.821,180661
544.57,476.718,180783
544.507,474.615,180166
544.445,472.511,180024
544.383,470.407,179959
544.32,468.302,179495
544.258,466.197,179672
544.195,464.091,179557
544.133,461.985,178910
544.071,459.878,179806
544.008,457.771,178949
543.946,455.663,178170
543.884,453.555,177504
543.821,451.446,177077
543.759,449.337,176457
543.696,447.227,176725
543.634,445.117,175973
543.572,443.006,175490
543.509,440.895,174904
543.447,438.784,174872
543.385,436.671,175083
543.322,434.559,174885
543.26,432.446,174685
543.198,430.332,174849
543.135,428.218,174540
543.073,426.104,173830
543.01,423.989,174056
542.948,421.873,174150
542.886,419.757,174803
542.823,417.641,174484
542.761,415.524,174020
542.699,413.407,174963
542.636,411.289,174741
542.574,409.17,174997
542.511,407.051,174238
542.449,404.932,175158
542.387,402.812,174440
542.324,400.692,174225
542.262,398.571,174151
542.2,396.45,173418
542.137,394.328,173867
542.075,392.205,173147
542.012,390.083,173304
541.95,387.959,172755
541.888,385.836,172007
541.825,383.711,172006
541.763,381.587,170597
541.701,379.461,170649
541.638,377.336,170905
541.576,375.209,170521
541.514,373.083,170104
541.451,370.955,169952
541.389,368.828,169460
541.326,366.7,168951
541.264,364.571,169323
541.202,362.442,169606
541.139,360.312,169334
541.077,358.182,169155
541.015,356.051,168713
540.952,353.92,169015
540.89,351.789,168637
540.827,349.657,168680
540.765,347.524,168222
540.703,345.391,166761
540.64,343.257,166751
540.578,341.123,165847
540.516,338.989,164977
540.453,336.854,163429
540.391,334.718,162046
540.328,332.582,161505
540.266,330.445,161091
540.204,328.308,160910
540.141,326.171,160062
540.079,324.033,159651
540.017,321.894,159402
539.954,319.755,158940
539.892,317.616,159392
539.83,315.476,159965
539.767,313.335,159864
539.705,311.194,160533
539.642,309.053,160120
539.58,306.911,160614
539.518,304.768,160500
539.455,302.625,159067
539.393,300.482,159749
539.331,298.338,157285
539.268,296.194,155931
539.206,294.049,154236
539.143,291.903,151546
539.081,289.757,149936
539.019,287.611,148211
538.956,285.464,146146
538.894,283.316,144504
538.832,281.169,145475
538.769,279.02,145054
538.707,276.871,145604
538.644,274.722,144946
538.582,272.572,142080
538.52,270.421,136372
538.457,268.271,127938
538.395,266.119,116701
538.333,263.967,106201
538.27,261.815,95067
538.208,259.662,85897
538.146,257.508,78977
538.083,255.355,73646
538.021,253.2,70127
537.958,251.045,67805
537.896,248.89,66335
537.834,246.734,65155
537.771,244.578,69463
537.709,242.421,64069
537.647,240.263,63835
537.584,238.105,63616
537.522,235.947,63423
537.459,233.788,63382
537.397,231.629,63233
537.335,229.469,63120
537.272,227.308,62978
537.21,225.147,62886
537.148,222.986,62965
537.085,220.824,63060
537.023,218.662,62857
536.96,216.499,62879
536.898,214.335,62872
536.836,212.171,62890
536.773,210.007,62862
536.711,207.842,62693
536.661,206.11,62832