File: tomke/20240809/raw_data/Si_onTiO2_80mA_30mW_30sec_5acc_517nm.txt
Wavelength(nm), Raman shift(cm^-1), Intensity(counts)
525.364,-194.586,108328
525.301,-196.846,108241
525.239,-199.106,108379
525.177,-201.367,108868
525.114,-203.629,109532
525.052,-205.891,109313
524.99,-208.154,109950
524.927,-210.417,110171
524.865,-212.681,110275
524.802,-214.945,110418
524.74,-217.21,110968
524.678,-219.475,111313
524.615,-221.741,111327
524.553,-224.008,111491
524.491,-226.275,112061
524.428,-228.542,111819
524.366,-230.81,111894
524.304,-233.079,112778
524.241,-235.348,112618
524.179,-237.618,112894
524.116,-239.888,113613
524.054,-242.159,114628
523.992,-244.43,114540
523.929,-246.702,115230
523.867,-248.974,115960
523.805,-251.247,117559
523.742,-253.52,120517
523.68,-255.794,122915
523.617,-258.069,127624
523.555,-260.344,134119
523.493,-262.62,144451
523.43,-264.896,159022
523.368,-267.173,180099
523.306,-269.45,207576
523.243,-271.728,242390
523.181,-274.006,283214
523.119,-276.285,323099
523.056,-278.564,361769
522.994,-280.844,394613
522.931,-283.125,420221
522.869,-285.406,442309
522.807,-287.688,456970
522.744,-289.97,466239
522.682,-292.252,473831
522.62,-294.536,478834
522.557,-296.82,481382
522.495,-299.104,481513
522.432,-301.389,483284
522.37,-303.674,484380
522.308,-305.96,489209
522.245,-308.247,484503
522.183,-310.534,483908
522.121,-312.821,482636
522.058,-315.11,483648
521.996,-317.398,480527
521.933,-319.687,479184
521.871,-321.977,477827
521.809,-324.268,477243
521.746,-326.559,477042
521.684,-328.85,474541
521.622,-331.142,473021
521.559,-333.434,473705
521.497,-335.728,472122
521.435,-338.021,472174
521.372,-340.315,471764
521.31,-342.61,471343
521.247,-344.905,469968
521.185,-347.201,468446
521.123,-349.498,467339
521.06,-351.795,466322
520.998,-354.092,465030
520.936,-356.39,463544
520.873,-358.689,463368
520.811,-360.988,461020
520.748,-363.287,457839
520.686,-365.588,456310
520.624,-367.889,454867
520.561,-370.19,454752
520.499,-372.492,451923
520.437,-374.794,452290
520.374,-377.097,449695
520.312,-379.401,449424
520.249,-381.705,449826
520.187,-384.009,447197
520.125,-386.315,446422
520.062,-388.62,447433
520.0,-390.927,447995
519.938,-393.234,445812
519.875,-395.541,445263
519.813,-397.849,447493
519.751,-400.158,444191
519.688,-402.467,442961
519.626,-404.776,442286
519.563,-407.086,441288
519.501,-409.397,440739
519.439,-411.708,438448
519.376,-414.02,436395
519.314,-416.333,435392
519.252,-418.646,434835
519.189,-420.959,431857
519.127,-423.273,429155
519.064,-425.588,428992
519.002,-427.903,426097
518.94,-430.219,424709
518.877,-432.535,421631
518.815,-434.852,419870
518.753,-437.169,419925
518.69,-439.487,417881
518.628,-441.806,417754
518.565,-444.125,416517
518.503,-446.445,415837
518.441,-448.765,415785
518.378,-451.086,413477
518.316,-453.407,413340
518.254,-455.729,413460
518.191,-458.051,415005
518.129,-460.374,414352
518.067,-462.698,413069
518.004,-465.022,410612
517.942,-467.347,410780
517.879,-469.672,410648
517.817,-471.998,409919
517.755,-474.324,408751
517.692,-476.651,407514
517.63,-478.978,407226
517.568,-481.306,408047
517.505,-483.635,407506
517.443,-485.964,406991
517.38,-488.294,406509
517.318,-490.624,406864
517.256,-492.955,407830
517.193,-495.286,408942
517.131,-497.618,408051
517.069,-499.951,407039
517.006,-502.284,405424
516.944,-504.618,401981
516.881,-506.952,399084
516.819,-509.287,399246
516.757,-511.622,397072
516.694,-513.958,398191
516.632,-516.294,396001
516.57,-518.631,395727
516.507,-520.969,394868
516.445,-523.307,394684
516.383,-525.646,393149
516.32,-527.985,392965
516.258,-530.325,393073
516.195,-532.665,391670
516.133,-535.006,391898
516.071,-537.348,391302
516.008,-539.69,390053
515.946,-542.033,389304
515.884,-544.376,389376
515.821,-546.72,389446
515.759,-549.064,387007
515.696,-551.409,386478
515.634,-553.755,386685
515.572,-556.101,385619
515.509,-558.448,384423
515.447,-560.795,383291
515.385,-563.143,383625
515.322,-565.491,381843
515.26,-567.84,382868
515.198,-570.189,381539
515.135,-572.539,380040
515.073,-574.89,381019
515.01,-577.241,380137
514.948,-579.593,378550
514.886,-581.945,378555
514.823,-584.298,376917
514.761,-586.652,376592
514.699,-589.006,378098
514.636,-591.361,377127
514.574,-593.716,374726
514.511,-596.072,374622
514.449,-598.428,374794
514.387,-600.785,374683
514.324,-603.142,373301
514.262,-605.5,372045
514.2,-607.859,370865
514.137,-610.218,370250
514.075,-612.578,368408
514.012,-614.938,368729
513.95,-617.299,367727
513.888,-619.661,366392
513.825,-622.023,365147
513.763,-624.385,362741
513.701,-626.749,363146
513.638,-629.112,361511
513.576,-631.477,361396
513.514,-633.842,358620
513.451,-636.207,356430
513.389,-638.573,357805
513.326,-640.94,357530
513.264,-643.307,355400
513.202,-645.675,353030
513.139,-648.043,353824
513.077,-650.412,354310
513.015,-652.782,352055
512.952,-655.152,350568
512.89,-657.523,350398
512.827,-659.894,347891
512.765,-662.266,349403
512.703,-664.638,346779
512.64,-667.011,345574
512.578,-669.385,345455
512.516,-671.759,343984
512.453,-674.134,344489
512.391,-676.509,342365
512.328,-678.885,341057
512.266,-681.261,340593
512.204,-683.638,339433
512.141,-686.016,337482
512.079,-688.394,335705
512.017,-690.773,336560
511.954,-693.152,333583
511.892,-695.532,333416
511.83,-697.913,332534
511.767,-700.294,329881
511.705,-702.676,327971
511.642,-705.058,327644
511.58,-707.441,325587
511.518,-709.824,325291
511.455,-712.208,323985
511.393,-714.593,323616
511.331,-716.978,321845
511.268,-719.364,320681
511.206,-721.75,319907
511.143,-724.137,319156
511.081,-726.525,317594
511.019,-728.913,316964
510.956,-731.301,317419
510.894,-733.691,315351
510.832,-736.08,314121
510.769,-738.471,313592
510.707,-740.862,313044
510.644,-743.253,311014
510.582,-745.646,309619
510.52,-748.038,309627
510.457,-750.432,307666
510.395,-752.826,305885
510.333,-755.22,305057
510.27,-757.615,304256
510.208,-760.011,301715
510.146,-762.407,301093
510.083,-764.804,299920
510.021,-767.201,298667
509.958,-769.599,298290
509.896,-771.998,295506
509.834,-774.397,295282
509.771,-776.797,294015
509.709,-779.197,292945
509.647,-781.598,291730
509.584,-784,290266
509.522,-786.402,289587
509.459,-788.805,287598
509.397,-791.208,286783
509.335,-793.612,285385
509.272,-796.016,284756
509.21,-798.421,283340
509.148,-800.827,282007
509.085,-803.233,281467
509.023,-805.64,281613
508.96,-808.048,281357
508.898,-810.456,278343
508.836,-812.864,278128
508.773,-815.274,278170
508.711,-817.683,275797
525.364,-194.586,101167
525.301,-196.846,101983
525.239,-199.106,101969
525.177,-201.367,102140
525.114,-203.629,102498
525.052,-205.891,102289
524.99,-208.154,102748
524.927,-210.417,102779
524.865,-212.681,103217
524.802,-214.945,103561
524.74,-217.21,103773
524.678,-219.475,103850
524.615,-221.741,104375
524.553,-224.008,104091
524.491,-226.275,104412
524.428,-228.542,104607
524.366,-230.81,104365
524.304,-233.079,105174
524.241,-235.348,105478
524.179,-237.618,105273
524.116,-239.888,105408
524.054,-242.159,106221
523.992,-244.43,106518
523.929,-246.702,107566
523.867,-248.974,107956
523.805,-251.247,109886
523.742,-253.52,110522
523.68,-255.794,113673
523.617,-258.069,117147
523.555,-260.344,122126
523.493,-262.62,130360
523.43,-264.896,141363
523.368,-267.173,156899
523.306,-269.45,179725
523.243,-271.728,207273
523.181,-274.006,237302
523.119,-276.285,269854
523.056,-278.564,299949
522.994,-280.844,325570
522.931,-283.125,345752
522.869,-285.406,362385
522.807,-287.688,373564
522.744,-289.97,381129
522.682,-292.252,387043
522.62,-294.536,390529
522.557,-296.82,390373
522.495,-299.104,393254
522.432,-301.389,394540
522.37,-303.674,394452
522.308,-305.96,392804
522.245,-308.247,394460
522.183,-310.534,392763
522.121,-312.821,393475
522.058,-315.11,392802
521.996,-317.398,391746
521.933,-319.687,389561
521.871,-321.977,390653
521.809,-324.268,387632
521.746,-326.559,386058
521.684,-328.85,386212
521.622,-331.142,385772
521.559,-333.434,385167
521.497,-335.728,384000
521.435,-338.021,383218
521.372,-340.315,383207
521.31,-342.61,382086
521.247,-344.905,382280
521.185,-347.201,382251
521.123,-349.498,380804
521.06,-351.795,380648
520.998,-354.092,379714
520.936,-356.39,377602
520.873,-358.689,376905
520.811,-360.988,375688
520.748,-363.287,372874
520.686,-365.588,372423
520.624,-367.889,370190
520.561,-370.19,368744
520.499,-372.492,368486
520.437,-374.794,366887
520.374,-377.097,366158
520.312,-379.401,365310
520.249,-381.705,365572
520.187,-384.009,363565
520.125,-386.315,363499
520.062,-388.62,363871
520.0,-390.927,363331
519.938,-393.234,362585
519.875,-395.541,363798
519.813,-397.849,363080
519.751,-400.158,360190
519.688,-402.467,360195
519.626,-404.776,359099
519.563,-407.086,359042
519.501,-409.397,358212
519.439,-411.708,356731
519.376,-414.02,354307
519.314,-416.333,354567
519.252,-418.646,352651
519.189,-420.959,352061
519.127,-423.273,350128
519.064,-425.588,348088
519.002,-427.903,346747
518.94,-430.219,342970
518.877,-432.535,343073
518.815,-434.852,341791
518.753,-437.169,340749
518.69,-439.487,340278
518.628,-441.806,340042
518.565,-444.125,338060
518.503,-446.445,338669
518.441,-448.765,337564
518.378,-451.086,337306
518.316,-453.407,337026
518.254,-455.729,334785
518.191,-458.051,336274
518.129,-460.374,335151
518.067,-462.698,335429
518.004,-465.022,332959
517.942,-467.347,333804
517.879,-469.672,333316
517.817,-471.998,332599
517.755,-474.324,332231
517.692,-476.651,331378
517.63,-478.978,330954
517.568,-481.306,331805
517.505,-483.635,330176
517.443,-485.964,331325
517.38,-488.294,331169
517.318,-490.624,331836
517.256,-492.955,332380
517.193,-495.286,332359
517.131,-497.618,334082
517.069,-499.951,333673
517.006,-502.284,330653
516.944,-504.618,327846
516.881,-506.952,325445
516.819,-509.287,324773
516.757,-511.622,322777
516.694,-513.958,322680
516.632,-516.294,321530
516.57,-518.631,321586
516.507,-520.969,320226
516.445,-523.307,320272
516.383,-525.646,320216
516.32,-527.985,319028
516.258,-530.325,319608
516.195,-532.665,317711
516.133,-535.006,318266
516.071,-537.348,317667
516.008,-539.69,316772
515.946,-542.033,316658
515.884,-544.376,315594
515.821,-546.72,315487
515.759,-549.064,315074
515.696,-551.409,314780
515.634,-553.755,314014
515.572,-556.101,313834
515.509,-558.448,313571
515.447,-560.795,312123
515.385,-563.143,311851
515.322,-565.491,310953
515.26,-567.84,311281
515.198,-570.189,309127
515.135,-572.539,309362
515.073,-574.89,308462
515.01,-577.241,308945
514.948,-579.593,308062
514.886,-581.945,307731
514.823,-584.298,307021
514.761,-586.652,307207
514.699,-589.006,306774
514.636,-591.361,306818
514.574,-593.716,304298
514.511,-596.072,304751
514.449,-598.428,304579
514.387,-600.785,304445
514.324,-603.142,303054
514.262,-605.5,302314
514.2,-607.859,302784
514.137,-610.218,300957
514.075,-612.578,301120
514.012,-614.938,299806
513.95,-617.299,298737
513.888,-619.661,298527
513.825,-622.023,296944
513.763,-624.385,295212
513.701,-626.749,295713
513.638,-629.112,294913
513.576,-631.477,293047
513.514,-633.842,292042
513.451,-636.207,291097
513.389,-638.573,291817
513.326,-640.94,290414
513.264,-643.307,289708
513.202,-645.675,289538
513.139,-648.043,288524
513.077,-650.412,287340
513.015,-652.782,287689
512.952,-655.152,285274
512.89,-657.523,284447
512.827,-659.894,284238
512.765,-662.266,285425
512.703,-664.638,283229
512.64,-667.011,282887
512.578,-669.385,280628
512.516,-671.759,281129
512.453,-674.134,279554
512.391,-676.509,279163
512.328,-678.885,278050
512.266,-681.261,276882
512.204,-683.638,276944
512.141,-686.016,274683
512.079,-688.394,274435
512.017,-690.773,273827
511.954,-693.152,271706
511.892,-695.532,272180
511.83,-697.913,270004
511.767,-700.294,269743
511.705,-702.676,268842
511.642,-705.058,266989
511.58,-707.441,266102
511.518,-709.824,266617
511.455,-712.208,265119
511.393,-714.593,263961
511.331,-716.978,263847
511.268,-719.364,262774
511.206,-721.75,261795
511.143,-724.137,261157
511.081,-726.525,259641
511.019,-728.913,259260
510.956,-731.301,258360
510.894,-733.691,258978
510.832,-736.08,257336
510.769,-738.471,255967
510.707,-740.862,255270
510.644,-743.253,254613
510.582,-745.646,253928
510.52,-748.038,252758
510.457,-750.432,252109
510.395,-752.826,251456
510.333,-755.22,250766
510.27,-757.615,248348
510.208,-760.011,247649
510.146,-762.407,246488
510.083,-764.804,246135
510.021,-767.201,245609
509.958,-769.599,243969
509.896,-771.998,243392
509.834,-774.397,242677
509.771,-776.797,241407
509.709,-779.197,241159
509.647,-781.598,239810
509.584,-784,238648
509.522,-786.402,237627
509.459,-788.805,237335
509.397,-791.208,235587
509.335,-793.612,235104
509.272,-796.016,235832
509.21,-798.421,233383
509.148,-800.827,233047
509.085,-803.233,231058
509.023,-805.64,231538
508.96,-808.048,230808
508.898,-810.456,229927
508.836,-812.864,229576
508.773,-815.274,228832
508.711,-817.683,227228
525.364,-194.586,99364
525.301,-196.846,99103
525.239,-199.106,99823
525.177,-201.367,99827
525.114,-203.629,99977
525.052,-205.891,100348
524.99,-208.154,100327
524.927,-210.417,100297
524.865,-212.681,100925
524.802,-214.945,101281
524.74,-217.21,101389
524.678,-219.475,101329
524.615,-221.741,101762
524.553,-224.008,101945
524.491,-226.275,101614
524.428,-228.542,102029
524.366,-230.81,102402
524.304,-233.079,102382
524.241,-235.348,102729
524.179,-237.618,102786
524.116,-239.888,103326
524.054,-242.159,103230
523.992,-244.43,104002
523.929,-246.702,105014
523.867,-248.974,105745
523.805,-251.247,106233
523.742,-253.52,108199
523.68,-255.794,110244
523.617,-258.069,113244
523.555,-260.344,118444
523.493,-262.62,125871
523.43,-264.896,136791
523.368,-267.173,150539
523.306,-269.45,170160
523.243,-271.728,196048
523.181,-274.006,223934
523.119,-276.285,252547
523.056,-278.564,279188
522.994,-280.844,302263
522.931,-283.125,321094
522.869,-285.406,336253
522.807,-287.688,347770
522.744,-289.97,354958
522.682,-292.252,359879
522.62,-294.536,362785
522.557,-296.82,365886
522.495,-299.104,364533
522.432,-301.389,366190
522.37,-303.674,365465
522.308,-305.96,365811
522.245,-308.247,365578
522.183,-310.534,364488
522.121,-312.821,364428
522.058,-315.11,364724
521.996,-317.398,362806
521.933,-319.687,361193
521.871,-321.977,359968
521.809,-324.268,360423
521.746,-326.559,359393
521.684,-328.85,358858
521.622,-331.142,357646
521.559,-333.434,356322
521.497,-335.728,356368
521.435,-338.021,355883
521.372,-340.315,355584
521.31,-342.61,353839
521.247,-344.905,354470
521.185,-347.201,353167
521.123,-349.498,352689
521.06,-351.795,351861
520.998,-354.092,351060
520.936,-356.39,350062
520.873,-358.689,348338
520.811,-360.988,347206
520.748,-363.287,345702
520.686,-365.588,345120
520.624,-367.889,342826
520.561,-370.19,342042
520.499,-372.492,341884
520.437,-374.794,339844
520.374,-377.097,339648
520.312,-379.401,338958
520.249,-381.705,337744
520.187,-384.009,338662
520.125,-386.315,338447
520.062,-388.62,337121
520.0,-390.927,337241
519.938,-393.234,336526
519.875,-395.541,335894
519.813,-397.849,335788
519.751,-400.158,334556
519.688,-402.467,334271
519.626,-404.776,334397
519.563,-407.086,332991
519.501,-409.397,332128
519.439,-411.708,329883
519.376,-414.02,329476
519.314,-416.333,328402
519.252,-418.646,326855
519.189,-420.959,325977
519.127,-423.273,324113
519.064,-425.588,323384
519.002,-427.903,320341
518.94,-430.219,319533
518.877,-432.535,317862
518.815,-434.852,317332
518.753,-437.169,316487
518.69,-439.487,314514
518.628,-441.806,315691
518.565,-444.125,314488
518.503,-446.445,313659
518.441,-448.765,313017
518.378,-451.086,312488
518.316,-453.407,311676
518.254,-455.729,310981
518.191,-458.051,310948
518.129,-460.374,310840
518.067,-462.698,310542
518.004,-465.022,310419
517.942,-467.347,309835
517.879,-469.672,310187
517.817,-471.998,308422
517.755,-474.324,309411
517.692,-476.651,308194
517.63,-478.978,307430
517.568,-481.306,306317
517.505,-483.635,305986
517.443,-485.964,305630
517.38,-488.294,307458
517.318,-490.624,307415
517.256,-492.955,308263
517.193,-495.286,310453
517.131,-497.618,308777
517.069,-499.951,309559
517.006,-502.284,307590
516.944,-504.618,304317
516.881,-506.952,301679
516.819,-509.287,300175
516.757,-511.622,299196
516.694,-513.958,298828
516.632,-516.294,298427
516.57,-518.631,297644
516.507,-520.969,297280
516.445,-523.307,296796
516.383,-525.646,296756
516.32,-527.985,295998
516.258,-530.325,295871
516.195,-532.665,295224
516.133,-535.006,294095
516.071,-537.348,294263
516.008,-539.69,294635
515.946,-542.033,293250
515.884,-544.376,293332
515.821,-546.72,292683
515.759,-549.064,291692
515.696,-551.409,291523
515.634,-553.755,290811
515.572,-556.101,290398
515.509,-558.448,290318
515.447,-560.795,289995
515.385,-563.143,288731
515.322,-565.491,288632
515.26,-567.84,288661
515.198,-570.189,286893
515.135,-572.539,286329
515.073,-574.89,286286
515.01,-577.241,287313
514.948,-579.593,284987
514.886,-581.945,285372
514.823,-584.298,285332
514.761,-586.652,284611
514.699,-589.006,285170
514.636,-591.361,284095
514.574,-593.716,283399
514.511,-596.072,282675
514.449,-598.428,282779
514.387,-600.785,282473
514.324,-603.142,281122
514.262,-605.5,280402
514.2,-607.859,278845
514.137,-610.218,279189
514.075,-612.578,279993
514.012,-614.938,279024
513.95,-617.299,277327
513.888,-619.661,277141
513.825,-622.023,275551
513.763,-624.385,274771
513.701,-626.749,274284
513.638,-629.112,273341
513.576,-631.477,272522
513.514,-633.842,272446
513.451,-636.207,270213
513.389,-638.573,270280
513.326,-640.94,269924
513.264,-643.307,268594
513.202,-645.675,268206
513.139,-648.043,267195
513.077,-650.412,267628
513.015,-652.782,266471
512.952,-655.152,265384
512.89,-657.523,265231
512.827,-659.894,263658
512.765,-662.266,263485
512.703,-664.638,262470
512.64,-667.011,261638
512.578,-669.385,262194
512.516,-671.759,258661
512.453,-674.134,259646
512.391,-676.509,258759
512.328,-678.885,258721
512.266,-681.261,257571
512.204,-683.638,256984
512.141,-686.016,255839
512.079,-688.394,253694
512.017,-690.773,254041
511.954,-693.152,251511
511.892,-695.532,252103
511.83,-697.913,250437
511.767,-700.294,250573
511.705,-702.676,249709
511.642,-705.058,248807
511.58,-707.441,247135
511.518,-709.824,248074
511.455,-712.208,246680
511.393,-714.593,245713
511.331,-716.978,244859
511.268,-719.364,245151
511.206,-721.75,243403
511.143,-724.137,242630
511.081,-726.525,242443
511.019,-728.913,241196
510.956,-731.301,239643
510.894,-733.691,240285
510.832,-736.08,239714
510.769,-738.471,238682
510.707,-740.862,237527
510.644,-743.253,237145
510.582,-745.646,235302
510.52,-748.038,235121
510.457,-750.432,234203
510.395,-752.826,234552
510.333,-755.22,232298
510.27,-757.615,232413
510.208,-760.011,231870
510.146,-762.407,229645
510.083,-764.804,228508
510.021,-767.201,228465
509.958,-769.599,227227
509.896,-771.998,226470
509.834,-774.397,225758
509.771,-776.797,224663
509.709,-779.197,222512
509.647,-781.598,222929
509.584,-784,221670
509.522,-786.402,221643
509.459,-788.805,220185
509.397,-791.208,219603
509.335,-793.612,219650
509.272,-796.016,218359
509.21,-798.421,218305
509.148,-800.827,216430
509.085,-803.233,216931
509.023,-805.64,215124
508.96,-808.048,215096
508.898,-810.456,214009
508.836,-812.864,213356
508.773,-815.274,213465
508.711,-817.683,212409
525.364,-194.586,100701
525.301,-196.846,101361
525.239,-199.106,101572
525.177,-201.367,101801
525.114,-203.629,101538
525.052,-205.891,102642
524.99,-208.154,102421
524.927,-210.417,102587
524.865,-212.681,102873
524.802,-214.945,102929
524.74,-217.21,103035
524.678,-219.475,103307
524.615,-221.741,103256
524.553,-224.008,103467
524.491,-226.275,104509
524.428,-228.542,103989
524.366,-230.81,104648
524.304,-233.079,104590
524.241,-235.348,104147
524.179,-237.618,105275
524.116,-239.888,105173
524.054,-242.159,105348
523.992,-244.43,106000
523.929,-246.702,106767
523.867,-248.974,107990
523.805,-251.247,108767
523.742,-253.52,110662
523.68,-255.794,113124
523.617,-258.069,116400
523.555,-260.344,122117
523.493,-262.62,128893
523.43,-264.896,140226
523.368,-267.173,156691
523.306,-269.45,177458
523.243,-271.728,204138
523.181,-274.006,234372
523.119,-276.285,265891
523.056,-278.564,294217
522.994,-280.844,319812
522.931,-283.125,339847
522.869,-285.406,355285
522.807,-287.688,366620
522.744,-289.97,374853
522.682,-292.252,381072
522.62,-294.536,382404
522.557,-296.82,383531
522.495,-299.104,385419
522.432,-301.389,386286
522.37,-303.674,385865
522.308,-305.96,386413
522.245,-308.247,385988
522.183,-310.534,385936
522.121,-312.821,385242
522.058,-315.11,385852
521.996,-317.398,383151
521.933,-319.687,381600
521.871,-321.977,381321
521.809,-324.268,379742
521.746,-326.559,380080
521.684,-328.85,378340
521.622,-331.142,378601
521.559,-333.434,378365
521.497,-335.728,377216
521.435,-338.021,375700
521.372,-340.315,376473
521.31,-342.61,374730
521.247,-344.905,375928
521.185,-347.201,373800
521.123,-349.498,373138
521.06,-351.795,372845
520.998,-354.092,371131
520.936,-356.39,370879
520.873,-358.689,369254
520.811,-360.988,365811
520.748,-363.287,365042
520.686,-365.588,365784
520.624,-367.889,363226
520.561,-370.19,361772
520.499,-372.492,361036
520.437,-374.794,360308
520.374,-377.097,359053
520.312,-379.401,359295
520.249,-381.705,357866
520.187,-384.009,357902
520.125,-386.315,355872
520.062,-388.62,356528
520.0,-390.927,355802
519.938,-393.234,356505
519.875,-395.541,353418
519.813,-397.849,356846
519.751,-400.158,354247
519.688,-402.467,353452
519.626,-404.776,352169
519.563,-407.086,352642
519.501,-409.397,351182
519.439,-411.708,350487
519.376,-414.02,348841
519.314,-416.333,347002
519.252,-418.646,345213
519.189,-420.959,343676
519.127,-423.273,342937
519.064,-425.588,340771
519.002,-427.903,340398
518.94,-430.219,338455
518.877,-432.535,336353
518.815,-434.852,335546
518.753,-437.169,335452
518.69,-439.487,333797
518.628,-441.806,333258
518.565,-444.125,331489
518.503,-446.445,330155
518.441,-448.765,331873
518.378,-451.086,330264
518.316,-453.407,329648
518.254,-455.729,328561
518.191,-458.051,329642
518.129,-460.374,327497
518.067,-462.698,328153
518.004,-465.022,327716
517.942,-467.347,327624
517.879,-469.672,326817
517.817,-471.998,326776
517.755,-474.324,325735
517.692,-476.651,325033
517.63,-478.978,325640
517.568,-481.306,324436
517.505,-483.635,323777
517.443,-485.964,324841
517.38,-488.294,324284
517.318,-490.624,325827
517.256,-492.955,326001
517.193,-495.286,327789
517.131,-497.618,327918
517.069,-499.951,326155
517.006,-502.284,324660
516.944,-504.618,321346
516.881,-506.952,319159
516.819,-509.287,318673
516.757,-511.622,316656
516.694,-513.958,317965
516.632,-516.294,315894
516.57,-518.631,315421
516.507,-520.969,314296
516.445,-523.307,314576
516.383,-525.646,313504
516.32,-527.985,313270
516.258,-530.325,312417
516.195,-532.665,312262
516.133,-535.006,312522
516.071,-537.348,312618
516.008,-539.69,310716
515.946,-542.033,311624
515.884,-544.376,309445
515.821,-546.72,310165
515.759,-549.064,309055
515.696,-551.409,307488
515.634,-553.755,308572
515.572,-556.101,307137
515.509,-558.448,306449
515.447,-560.795,306106
515.385,-563.143,304001
515.322,-565.491,305125
515.26,-567.84,304771
515.198,-570.189,304700
515.135,-572.539,303718
515.073,-574.89,303197
515.01,-577.241,302818
514.948,-579.593,301992
514.886,-581.945,302347
514.823,-584.298,300717
514.761,-586.652,301051
514.699,-589.006,301302
514.636,-591.361,300098
514.574,-593.716,299614
514.511,-596.072,297948
514.449,-598.428,297712
514.387,-600.785,298497
514.324,-603.142,297077
514.262,-605.5,295749
514.2,-607.859,295716
514.137,-610.218,295033
514.075,-612.578,295191
514.012,-614.938,292779
513.95,-617.299,294636
513.888,-619.661,291760
513.825,-622.023,291021
513.763,-624.385,289789
513.701,-626.749,289576
513.638,-629.112,288541
513.576,-631.477,287479
513.514,-633.842,287061
513.451,-636.207,285010
513.389,-638.573,284375
513.326,-640.94,284211
513.264,-643.307,284581
513.202,-645.675,282994
513.139,-648.043,282744
513.077,-650.412,281595
513.015,-652.782,281242
512.952,-655.152,279519
512.89,-657.523,279832
512.827,-659.894,279118
512.765,-662.266,278047
512.703,-664.638,277750
512.64,-667.011,276506
512.578,-669.385,276408
512.516,-671.759,275567
512.453,-674.134,274458
512.391,-676.509,273210
512.328,-678.885,273433
512.266,-681.261,271477
512.204,-683.638,271218
512.141,-686.016,270643
512.079,-688.394,268880
512.017,-690.773,267971
511.954,-693.152,266596
511.892,-695.532,266568
511.83,-697.913,264976
511.767,-700.294,264017
511.705,-702.676,263454
511.642,-705.058,263183
511.58,-707.441,261966
511.518,-709.824,261491
511.455,-712.208,260041
511.393,-714.593,259514
511.331,-716.978,259058
511.268,-719.364,258005
511.206,-721.75,256769
511.143,-724.137,256459
511.081,-726.525,256071
511.019,-728.913,255137
510.956,-731.301,253983
510.894,-733.691,252989
510.832,-736.08,252600
510.769,-738.471,252181
510.707,-740.862,251129
510.644,-743.253,249709
510.582,-745.646,249256
510.52,-748.038,247199
510.457,-750.432,246734
510.395,-752.826,245519
510.333,-755.22,245478
510.27,-757.615,243926
510.208,-760.011,244588
510.146,-762.407,242113
510.083,-764.804,241878
510.021,-767.201,239890
509.958,-769.599,240266
509.896,-771.998,238828
509.834,-774.397,237620
509.771,-776.797,236800
509.709,-779.197,236833
509.647,-781.598,235068
509.584,-784,234738
509.522,-786.402,233543
509.459,-788.805,232847
509.397,-791.208,232862
509.335,-793.612,231133
509.272,-796.016,230683
509.21,-798.421,230579
509.148,-800.827,228954
509.085,-803.233,228237
509.023,-805.64,228449
508.96,-808.048,227083
508.898,-810.456,225967
508.836,-812.864,225048
508.773,-815.274,224384
508.711,-817.683,223134
525.364,-194.586,99011
525.301,-196.846,99241
525.239,-199.106,99573
525.177,-201.367,99474
525.114,-203.629,100186
525.052,-205.891,99875
524.99,-208.154,99860
524.927,-210.417,99897
524.865,-212.681,100594
524.802,-214.945,100723
524.74,-217.21,100868
524.678,-219.475,101250
524.615,-221.741,101249
524.553,-224.008,101239
524.491,-226.275,101334
524.428,-228.542,101657
524.366,-230.81,102047
524.304,-233.079,102671
524.241,-235.348,102006
524.179,-237.618,102475
524.116,-239.888,102924
524.054,-242.159,103296
523.992,-244.43,103787
523.929,-246.702,104068
523.867,-248.974,104618
523.805,-251.247,106405
523.742,-253.52,107499
523.68,-255.794,109897
523.617,-258.069,112738
523.555,-260.344,118162
523.493,-262.62,124842
523.43,-264.896,135379
523.368,-267.173,150197
523.306,-269.45,169816
523.243,-271.728,194339
523.181,-274.006,222541
523.119,-276.285,249728
523.056,-278.564,277198
522.994,-280.844,299533
522.931,-283.125,317274
522.869,-285.406,331663
522.807,-287.688,342864
522.744,-289.97,350392
522.682,-292.252,355486
522.62,-294.536,357762
522.557,-296.82,358766
522.495,-299.104,359467
522.432,-301.389,360448
522.37,-303.674,360696
522.308,-305.96,360860
522.245,-308.247,360827
522.183,-310.534,360499
522.121,-312.821,358704
522.058,-315.11,359643
521.996,-317.398,358749
521.933,-319.687,355850
521.871,-321.977,355569
521.809,-324.268,355229
521.746,-326.559,355645
521.684,-328.85,353206
521.622,-331.142,353344
521.559,-333.434,351780
521.497,-335.728,352511
521.435,-338.021,350809
521.372,-340.315,351989
521.31,-342.61,350582
521.247,-344.905,350133
521.185,-347.201,350410
521.123,-349.498,347075
521.06,-351.795,348080
520.998,-354.092,346517
520.936,-356.39,346165
520.873,-358.689,345550
520.811,-360.988,342823
520.748,-363.287,340867
520.686,-365.588,341106
520.624,-367.889,339040
520.561,-370.19,337920
520.499,-372.492,337510
520.437,-374.794,336875
520.374,-377.097,335088
520.312,-379.401,333903
520.249,-381.705,334146
520.187,-384.009,332358
520.125,-386.315,333095
520.062,-388.62,333110
520.0,-390.927,332604
519.938,-393.234,332537
519.875,-395.541,331470
519.813,-397.849,331700
519.751,-400.158,330661
519.688,-402.467,330298
519.626,-404.776,329702
519.563,-407.086,327575
519.501,-409.397,328225
519.439,-411.708,325510
519.376,-414.02,325559
519.314,-416.333,324145
519.252,-418.646,322280
519.189,-420.959,321538
519.127,-423.273,320551
519.064,-425.588,317564
519.002,-427.903,317720
518.94,-430.219,315546
518.877,-432.535,313595
518.815,-434.852,313266
518.753,-437.169,312581
518.69,-439.487,310360
518.628,-441.806,310972
518.565,-444.125,309222
518.503,-446.445,309227
518.441,-448.765,308811
518.378,-451.086,308527
518.316,-453.407,308377
518.254,-455.729,307588
518.191,-458.051,308259
518.129,-460.374,306842
518.067,-462.698,306403
518.004,-465.022,305133
517.942,-467.347,305722
517.879,-469.672,305848
517.817,-471.998,304009
517.755,-474.324,303932
517.692,-476.651,304098
517.63,-478.978,303672
517.568,-481.306,302035
517.505,-483.635,303195
517.443,-485.964,301530
517.38,-488.294,303709
517.318,-490.624,303604
517.256,-492.955,306485
517.193,-495.286,305649
517.131,-497.618,306208
517.069,-499.951,305148
517.006,-502.284,303061
516.944,-504.618,301200
516.881,-506.952,298921
516.819,-509.287,296699
516.757,-511.622,295642
516.694,-513.958,295305
516.632,-516.294,294027
516.57,-518.631,294679
516.507,-520.969,293433
516.445,-523.307,293682
516.383,-525.646,294081
516.32,-527.985,292326
516.258,-530.325,292757
516.195,-532.665,291244
516.133,-535.006,290886
516.071,-537.348,290426
516.008,-539.69,290375
515.946,-542.033,290624
515.884,-544.376,290457
515.821,-546.72,289615
515.759,-549.064,287968
515.696,-551.409,287036
515.634,-553.755,287623
515.572,-556.101,286550
515.509,-558.448,286197
515.447,-560.795,285597
515.385,-563.143,285493
515.322,-565.491,285161
515.26,-567.84,284826
515.198,-570.189,283746
515.135,-572.539,283723
515.073,-574.89,283063
515.01,-577.241,282378
514.948,-579.593,282743
514.886,-581.945,281985
514.823,-584.298,280644
514.761,-586.652,281781
514.699,-589.006,280769
514.636,-591.361,280811
514.574,-593.716,279217
514.511,-596.072,279119
514.449,-598.428,278561
514.387,-600.785,278496
514.324,-603.142,277685
514.262,-605.5,276878
514.2,-607.859,276782
514.137,-610.218,275974
514.075,-612.578,275117
514.012,-614.938,274401
513.95,-617.299,274262
513.888,-619.661,272712
513.825,-622.023,271350
513.763,-624.385,270529
513.701,-626.749,270034
513.638,-629.112,270920
513.576,-631.477,269267
513.514,-633.842,267721
513.451,-636.207,267718
513.389,-638.573,266750
513.326,-640.94,266731
513.264,-643.307,265009
513.202,-645.675,265275
513.139,-648.043,265432
513.077,-650.412,264753
513.015,-652.782,262756
512.952,-655.152,261754
512.89,-657.523,261244
512.827,-659.894,260986
512.765,-662.266,261426
512.703,-664.638,259893
512.64,-667.011,258710
512.578,-669.385,259412
512.516,-671.759,258664
512.453,-674.134,257157
512.391,-676.509,256290
512.328,-678.885,256160
512.266,-681.261,254597
512.204,-683.638,253360
512.141,-686.016,252664
512.079,-688.394,251533
512.017,-690.773,250761
511.954,-693.152,249485
511.892,-695.532,249094
511.83,-697.913,247816
511.767,-700.294,247772
511.705,-702.676,246072
511.642,-705.058,246298
511.58,-707.441,245726
511.518,-709.824,245316
511.455,-712.208,243947
511.393,-714.593,242766
511.331,-716.978,241944
511.268,-719.364,241019
511.206,-721.75,241370
511.143,-724.137,240188
511.081,-726.525,238481
511.019,-728.913,237487
510.956,-731.301,238402
510.894,-733.691,237370
510.832,-736.08,236951
510.769,-738.471,236188
510.707,-740.862,235137
510.644,-743.253,233347
510.582,-745.646,233582
510.52,-748.038,232675
510.457,-750.432,231476
510.395,-752.826,230749
510.333,-755.22,229588
510.27,-757.615,228949
510.208,-760.011,228544
510.146,-762.407,227637
510.083,-764.804,225958
510.021,-767.201,226382
509.958,-769.599,224374
509.896,-771.998,223642
509.834,-774.397,222193
509.771,-776.797,221314
509.709,-779.197,220770
509.647,-781.598,220930
509.584,-784,219581
509.522,-786.402,218816
509.459,-788.805,217884
509.397,-791.208,217392
509.335,-793.612,216596
509.272,-796.016,216197
509.21,-798.421,214791
509.148,-800.827,215249
509.085,-803.233,213805
509.023,-805.64,213736
508.96,-808.048,212649
508.898,-810.456,211659
508.836,-812.864,211448
508.773,-815.274,210564
508.711,-817.683,210044
508.661,-819.612,208359