File: tomke/20240809/raw_data/Si_onTiO2_0mA_30mW_30sec_5acc_545nm.txt
Wavelength(nm), Raman shift(cm^-1), Intensity(counts)
553.364,768.549,59802
553.301,766.512,60198
553.239,764.475,60182
553.177,762.437,60147
553.114,760.398,60204
553.052,758.359,60172
552.99,756.32,60182
552.927,754.28,60155
552.865,752.24,60127
552.802,750.199,60123
552.74,748.158,60156
552.678,746.116,60096
552.615,744.074,60105
552.553,742.032,60094
552.491,739.989,60142
552.428,737.945,60123
552.366,735.901,60067
552.304,733.857,60080
552.241,731.812,60080
552.179,729.766,60189
552.116,727.721,60088
552.054,725.674,60145
551.992,723.628,60153
551.929,721.58,60049
551.867,719.533,60086
551.805,717.485,60123
551.742,715.436,60131
551.68,713.387,60056
551.617,711.337,60123
551.555,709.287,60116
551.493,707.237,60161
551.43,705.186,60176
551.368,703.135,60231
551.306,701.083,60090
551.243,699.031,60113
551.181,696.978,60219
551.119,694.925,60193
551.056,692.871,60133
550.994,690.817,60184
550.931,688.762,60195
550.869,686.707,60305
550.807,684.651,60310
550.744,682.595,60224
550.682,680.539,60267
550.62,678.482,60192
550.557,676.425,60248
550.495,674.367,60244
550.432,672.308,60277
550.37,670.25,60300
550.308,668.19,60289
550.245,666.131,60242
550.183,664.07,60235
550.121,662.01,60230
550.058,659.948,60172
549.996,657.887,60184
549.933,655.825,60339
549.871,653.762,60268
549.809,651.699,60141
549.746,649.636,60256
549.684,647.572,60204
549.622,645.507,60237
549.559,643.442,60296
549.497,641.377,60267
549.435,639.311,60313
549.372,637.245,60294
549.31,635.178,60206
549.247,633.111,60322
549.185,631.043,60242
549.123,628.975,60309
549.06,626.906,60337
548.998,624.837,60356
548.936,622.768,60237
548.873,620.698,60296
548.811,618.627,60344
548.748,616.556,60311
548.686,614.485,60333
548.624,612.413,60295
548.561,610.34,60229
548.499,608.267,60300
548.437,606.194,60229
548.374,604.12,60195
548.312,602.046,60220
548.249,599.971,60171
548.187,597.896,60271
548.125,595.82,60156
548.062,593.744,60162
548.0,591.667,60186
547.938,589.59,60195
547.875,587.513,60194
547.813,585.434,60298
547.751,583.356,60158
547.688,581.277,60262
547.626,579.197,60168
547.563,577.117,60177
547.501,575.037,60247
547.439,572.956,60171
547.376,570.875,60231
547.314,568.793,60187
547.252,566.71,60210
547.189,564.628,60183
547.127,562.544,60199
547.064,560.461,60262
547.002,558.376,60241
546.94,556.292,60256
546.877,554.206,60316
546.815,552.121,60357
546.753,550.035,60413
546.69,547.948,60433
546.628,545.861,60456
546.565,543.773,60605
546.503,541.685,60721
546.441,539.597,60827
546.378,537.508,60952
546.316,535.418,61166
546.254,533.328,61653
546.191,531.238,62218
546.129,529.147,63336
546.067,527.056,66781
546.004,524.964,78390
545.942,522.871,104692
545.879,520.778,114514
545.817,518.685,96544
545.755,516.591,78333
545.692,514.497,68481
545.63,512.402,63848
545.568,510.307,62437
545.505,508.211,61674
545.443,506.115,61160
545.38,504.019,61150
545.318,501.922,60808
545.256,499.824,60746
545.193,497.726,60664
545.131,495.627,60633
545.069,493.528,60547
545.006,491.429,60497
544.944,489.329,60370
544.881,487.228,60349
544.819,485.127,60381
544.757,483.026,60306
544.694,480.924,60341
544.632,478.821,60301
544.57,476.718,60311
544.507,474.615,60200
544.445,472.511,60199
544.383,470.407,60279
544.32,468.302,60188
544.258,466.197,60276
544.195,464.091,60157
544.133,461.985,60216
544.071,459.878,60201
544.008,457.771,60191
543.946,455.663,60165
543.884,453.555,60197
543.821,451.446,60334
543.759,449.337,60267
543.696,447.227,60239
543.634,445.117,60282
543.572,443.006,60321
543.509,440.895,60368
543.447,438.784,60429
543.385,436.671,60326
543.322,434.559,60412
543.26,432.446,60449
543.198,430.332,60334
543.135,428.218,60352
543.073,426.104,60404
543.01,423.989,60347
542.948,421.873,60423
542.886,419.757,60305
542.823,417.641,60350
542.761,415.524,60256
542.699,413.407,60404
542.636,411.289,60344
542.574,409.17,60428
542.511,407.051,60488
542.449,404.932,60411
542.387,402.812,60279
542.324,400.692,60370
542.262,398.571,60327
542.2,396.45,60406
542.137,394.328,60255
542.075,392.205,60405
542.012,390.083,60371
541.95,387.959,60363
541.888,385.836,60410
541.825,383.711,60461
541.763,381.587,60448
541.701,379.461,60413
541.638,377.336,60404
541.576,375.209,60452
541.514,373.083,60371
541.451,370.955,60381
541.389,368.828,60394
541.326,366.7,60334
541.264,364.571,60445
541.202,362.442,60518
541.139,360.312,60507
541.077,358.182,60484
541.015,356.051,60438
540.952,353.92,60435
540.89,351.789,60501
540.827,349.657,60490
540.765,347.524,60554
540.703,345.391,60428
540.64,343.257,60510
540.578,341.123,60487
540.516,338.989,60580
540.453,336.854,60501
540.391,334.718,60425
540.328,332.582,60544
540.266,330.445,60608
540.204,328.308,60545
540.141,326.171,60559
540.079,324.033,60505
540.017,321.894,60555
539.954,319.755,60665
539.892,317.616,60595
539.83,315.476,60643
539.767,313.335,60797
539.705,311.194,60635
539.642,309.053,60665
539.58,306.911,60951
539.518,304.768,61004
539.455,302.625,60933
539.393,300.482,61092
539.331,298.338,60961
539.268,296.194,60898
539.206,294.049,60809
539.143,291.903,60776
539.081,289.757,60697
539.019,287.611,60774
538.956,285.464,60651
538.894,283.316,60587
538.832,281.169,60659
538.769,279.02,60610
538.707,276.871,60550
538.644,274.722,60726
538.582,272.572,60656
538.52,270.421,60599
538.457,268.271,60503
538.395,266.119,60333
538.333,263.967,60277
538.27,261.815,60183
538.208,259.662,60190
538.146,257.508,60045
538.083,255.355,60115
538.021,253.2,60036
537.958,251.045,59960
537.896,248.89,60052
537.834,246.734,59989
537.771,244.578,60049
537.709,242.421,59998
537.647,240.263,60066
537.584,238.105,59910
537.522,235.947,60045
537.459,233.788,60105
537.397,231.629,59973
537.335,229.469,59930
537.272,227.308,59946
537.21,225.147,59977
537.148,222.986,59966
537.085,220.824,59953
537.023,218.662,59918
536.96,216.499,60005
536.898,214.335,60048
536.836,212.171,60012
536.773,210.007,60053
536.711,207.842,59969
553.364,768.549,59875
553.301,766.512,60169
553.239,764.475,60163
553.177,762.437,60117
553.114,760.398,60181
553.052,758.359,60122
552.99,756.32,60149
552.927,754.28,60079
552.865,752.24,60146
552.802,750.199,60134
552.74,748.158,60105
552.678,746.116,60044
552.615,744.074,60084
552.553,742.032,60247
552.491,739.989,60169
552.428,737.945,60185
552.366,735.901,60173
552.304,733.857,60092
552.241,731.812,60122
552.179,729.766,60064
552.116,727.721,60135
552.054,725.674,60141
551.992,723.628,60114
551.929,721.58,60210
551.867,719.533,60165
551.805,717.485,60086
551.742,715.436,60060
551.68,713.387,60190
551.617,711.337,60216
551.555,709.287,60228
551.493,707.237,60143
551.43,705.186,60213
551.368,703.135,60128
551.306,701.083,60190
551.243,699.031,60129
551.181,696.978,60188
551.119,694.925,60182
551.056,692.871,60185
550.994,690.817,60181
550.931,688.762,60114
550.869,686.707,60246
550.807,684.651,60208
550.744,682.595,60177
550.682,680.539,60240
550.62,678.482,60230
550.557,676.425,60244
550.495,674.367,60154
550.432,672.308,60239
550.37,670.25,60173
550.308,668.19,60236
550.245,666.131,60251
550.183,664.07,60259
550.121,662.01,60287
550.058,659.948,60227
549.996,657.887,60154
549.933,655.825,60184
549.871,653.762,60185
549.809,651.699,60250
549.746,649.636,60204
549.684,647.572,60219
549.622,645.507,60305
549.559,643.442,60254
549.497,641.377,60275
549.435,639.311,60282
549.372,637.245,60307
549.31,635.178,60315
549.247,633.111,60285
549.185,631.043,60307
549.123,628.975,60325
549.06,626.906,60321
548.998,624.837,60375
548.936,622.768,60370
548.873,620.698,60315
548.811,618.627,60264
548.748,616.556,60269
548.686,614.485,60221
548.624,612.413,60320
548.561,610.34,60327
548.499,608.267,60239
548.437,606.194,60219
548.374,604.12,60170
548.312,602.046,60262
548.249,599.971,60257
548.187,597.896,60170
548.125,595.82,67678
548.062,593.744,60228
548.0,591.667,60186
547.938,589.59,60144
547.875,587.513,60140
547.813,585.434,60164
547.751,583.356,60125
547.688,581.277,60177
547.626,579.197,60198
547.563,577.117,60157
547.501,575.037,60169
547.439,572.956,60218
547.376,570.875,60149
547.314,568.793,60216
547.252,566.71,60249
547.189,564.628,60251
547.127,562.544,60291
547.064,560.461,60256
547.002,558.376,60246
546.94,556.292,60346
546.877,554.206,60401
546.815,552.121,60480
546.753,550.035,60351
546.69,547.948,60571
546.628,545.861,60589
546.565,543.773,60588
546.503,541.685,60686
546.441,539.597,60832
546.378,537.508,61000
546.316,535.418,61310
546.254,533.328,61550
546.191,531.238,62073
546.129,529.147,63342
546.067,527.056,66461
546.004,524.964,77355
545.942,522.871,103765
545.879,520.778,114211
545.817,518.685,96744
545.755,516.591,78866
545.692,514.497,68584
545.63,512.402,64153
545.568,510.307,62419
545.505,508.211,61636
545.443,506.115,61265
545.38,504.019,60996
545.318,501.922,60696
545.256,499.824,60676
545.193,497.726,60628
545.131,495.627,60563
545.069,493.528,60492
545.006,491.429,60389
544.944,489.329,60486
544.881,487.228,60471
544.819,485.127,60452
544.757,483.026,60387
544.694,480.924,60379
544.632,478.821,60290
544.57,476.718,60318
544.507,474.615,60192
544.445,472.511,60178
544.383,470.407,60237
544.32,468.302,60242
544.258,466.197,60190
544.195,464.091,60200
544.133,461.985,60183
544.071,459.878,60102
544.008,457.771,60172
543.946,455.663,60171
543.884,453.555,60265
543.821,451.446,60229
543.759,449.337,60235
543.696,447.227,60333
543.634,445.117,60267
543.572,443.006,60372
543.509,440.895,60370
543.447,438.784,60419
543.385,436.671,60413
543.322,434.559,60498
543.26,432.446,60343
543.198,430.332,60364
543.135,428.218,60435
543.073,426.104,60389
543.01,423.989,60378
542.948,421.873,60289
542.886,419.757,60313
542.823,417.641,60348
542.761,415.524,60448
542.699,413.407,60343
542.636,411.289,60387
542.574,409.17,60428
542.511,407.051,60407
542.449,404.932,60373
542.387,402.812,60369
542.324,400.692,60424
542.262,398.571,60415
542.2,396.45,60329
542.137,394.328,60469
542.075,392.205,60390
542.012,390.083,60354
541.95,387.959,60299
541.888,385.836,60420
541.825,383.711,60357
541.763,381.587,60487
541.701,379.461,60412
541.638,377.336,60420
541.576,375.209,60314
541.514,373.083,60403
541.451,370.955,60416
541.389,368.828,60434
541.326,366.7,60387
541.264,364.571,60430
541.202,362.442,60462
541.139,360.312,60439
541.077,358.182,60498
541.015,356.051,60396
540.952,353.92,60444
540.89,351.789,60566
540.827,349.657,60483
540.765,347.524,60486
540.703,345.391,60367
540.64,343.257,60482
540.578,341.123,60514
540.516,338.989,60599
540.453,336.854,60548
540.391,334.718,60489
540.328,332.582,60535
540.266,330.445,60552
540.204,328.308,60578
540.141,326.171,60555
540.079,324.033,60640
540.017,321.894,60717
539.954,319.755,60669
539.892,317.616,60704
539.83,315.476,60679
539.767,313.335,60670
539.705,311.194,60712
539.642,309.053,60799
539.58,306.911,60849
539.518,304.768,60877
539.455,302.625,60957
539.393,300.482,61058
539.331,298.338,61039
539.268,296.194,61087
539.206,294.049,60699
539.143,291.903,60699
539.081,289.757,60702
539.019,287.611,60827
538.956,285.464,60707
538.894,283.316,60612
538.832,281.169,60500
538.769,279.02,60757
538.707,276.871,60615
538.644,274.722,60606
538.582,272.572,60708
538.52,270.421,60540
538.457,268.271,60445
538.395,266.119,60320
538.333,263.967,60338
538.27,261.815,60196
538.208,259.662,60096
538.146,257.508,59954
538.083,255.355,60044
538.021,253.2,60069
537.958,251.045,60026
537.896,248.89,60057
537.834,246.734,60010
537.771,244.578,59996
537.709,242.421,59969
537.647,240.263,60059
537.584,238.105,59958
537.522,235.947,59972
537.459,233.788,59973
537.397,231.629,59979
537.335,229.469,60026
537.272,227.308,59958
537.21,225.147,60017
537.148,222.986,60004
537.085,220.824,60010
537.023,218.662,59914
536.96,216.499,59985
536.898,214.335,60014
536.836,212.171,59990
536.773,210.007,60035
536.711,207.842,59965
553.364,768.549,59890
553.301,766.512,60323
553.239,764.475,60176
553.177,762.437,60157
553.114,760.398,60126
553.052,758.359,60098
552.99,756.32,60051
552.927,754.28,60106
552.865,752.24,60076
552.802,750.199,60088
552.74,748.158,60179
552.678,746.116,60090
552.615,744.074,60012
552.553,742.032,60093
552.491,739.989,60127
552.428,737.945,60081
552.366,735.901,60023
552.304,733.857,60167
552.241,731.812,60128
552.179,729.766,60058
552.116,727.721,60005
552.054,725.674,60237
551.992,723.628,60070
551.929,721.58,60159
551.867,719.533,60083
551.805,717.485,60107
551.742,715.436,60041
551.68,713.387,60141
551.617,711.337,60141
551.555,709.287,60127
551.493,707.237,60157
551.43,705.186,60172
551.368,703.135,60195
551.306,701.083,60121
551.243,699.031,60113
551.181,696.978,60174
551.119,694.925,60126
551.056,692.871,60203
550.994,690.817,60148
550.931,688.762,60236
550.869,686.707,60196
550.807,684.651,60149
550.744,682.595,60173
550.682,680.539,60249
550.62,678.482,60143
550.557,676.425,60265
550.495,674.367,60268
550.432,672.308,60233
550.37,670.25,60239
550.308,668.19,60260
550.245,666.131,60243
550.183,664.07,60281
550.121,662.01,60242
550.058,659.948,60247
549.996,657.887,60211
549.933,655.825,60198
549.871,653.762,60103
549.809,651.699,60262
549.746,649.636,60167
549.684,647.572,60281
549.622,645.507,60227
549.559,643.442,60289
549.497,641.377,60175
549.435,639.311,60287
549.372,637.245,60228
549.31,635.178,60279
549.247,633.111,60240
549.185,631.043,60353
549.123,628.975,60339
549.06,626.906,60401
548.998,624.837,60272
548.936,622.768,60329
548.873,620.698,60294
548.811,618.627,60359
548.748,616.556,60329
548.686,614.485,60353
548.624,612.413,60269
548.561,610.34,60276
548.499,608.267,60246
548.437,606.194,60256
548.374,604.12,60194
548.312,602.046,60271
548.249,599.971,60223
548.187,597.896,60088
548.125,595.82,60144
548.062,593.744,60145
548.0,591.667,60137
547.938,589.59,60123
547.875,587.513,60214
547.813,585.434,60190
547.751,583.356,60142
547.688,581.277,60197
547.626,579.197,60092
547.563,577.117,60211
547.501,575.037,60239
547.439,572.956,60291
547.376,570.875,60191
547.314,568.793,60190
547.252,566.71,60186
547.189,564.628,60250
547.127,562.544,60217
547.064,560.461,60255
547.002,558.376,60311
546.94,556.292,60266
546.877,554.206,60342
546.815,552.121,60300
546.753,550.035,60378
546.69,547.948,60531
546.628,545.861,60567
546.565,543.773,60528
546.503,541.685,60647
546.441,539.597,60815
546.378,537.508,61063
546.316,535.418,61187
546.254,533.328,61520
546.191,531.238,62210
546.129,529.147,63233
546.067,527.056,66560
546.004,524.964,77525
545.942,522.871,102784
545.879,520.778,114616
545.817,518.685,97055
545.755,516.591,78833
545.692,514.497,68716
545.63,512.402,64032
545.568,510.307,62411
545.505,508.211,61726
545.443,506.115,61153
545.38,504.019,60963
545.318,501.922,60895
545.256,499.824,60702
545.193,497.726,60646
545.131,495.627,60580
545.069,493.528,60492
545.006,491.429,60465
544.944,489.329,60414
544.881,487.228,60472
544.819,485.127,60336
544.757,483.026,60286
544.694,480.924,60332
544.632,478.821,60359
544.57,476.718,60168
544.507,474.615,60252
544.445,472.511,60274
544.383,470.407,60278
544.32,468.302,60278
544.258,466.197,60258
544.195,464.091,60134
544.133,461.985,60240
544.071,459.878,60199
544.008,457.771,60153
543.946,455.663,60181
543.884,453.555,60169
543.821,451.446,60212
543.759,449.337,60305
543.696,447.227,60352
543.634,445.117,60233
543.572,443.006,60287
543.509,440.895,60444
543.447,438.784,60292
543.385,436.671,60387
543.322,434.559,60381
543.26,432.446,60532
543.198,430.332,60387
543.135,428.218,60444
543.073,426.104,60407
543.01,423.989,60413
542.948,421.873,60397
542.886,419.757,60378
542.823,417.641,60314
542.761,415.524,60251
542.699,413.407,60304
542.636,411.289,60416
542.574,409.17,60364
542.511,407.051,60325
542.449,404.932,60392
542.387,402.812,60284
542.324,400.692,60352
542.262,398.571,60430
542.2,396.45,60440
542.137,394.328,60431
542.075,392.205,60400
542.012,390.083,84683
541.95,387.959,60450
541.888,385.836,60262
541.825,383.711,60448
541.763,381.587,60471
541.701,379.461,60313
541.638,377.336,60388
541.576,375.209,60318
541.514,373.083,60352
541.451,370.955,60481
541.389,368.828,60459
541.326,366.7,60402
541.264,364.571,60431
541.202,362.442,60362
541.139,360.312,60346
541.077,358.182,60424
541.015,356.051,60469
540.952,353.92,60477
540.89,351.789,60386
540.827,349.657,60428
540.765,347.524,60403
540.703,345.391,60483
540.64,343.257,60531
540.578,341.123,60523
540.516,338.989,60511
540.453,336.854,60492
540.391,334.718,60603
540.328,332.582,60389
540.266,330.445,60477
540.204,328.308,60486
540.141,326.171,60623
540.079,324.033,60586
540.017,321.894,60714
539.954,319.755,60634
539.892,317.616,60606
539.83,315.476,60681
539.767,313.335,60726
539.705,311.194,60758
539.642,309.053,60806
539.58,306.911,60863
539.518,304.768,61055
539.455,302.625,61024
539.393,300.482,61039
539.331,298.338,60953
539.268,296.194,60940
539.206,294.049,60743
539.143,291.903,62807
539.081,289.757,60766
539.019,287.611,60625
538.956,285.464,60650
538.894,283.316,60605
538.832,281.169,60664
538.769,279.02,60599
538.707,276.871,60596
538.644,274.722,60653
538.582,272.572,60599
538.52,270.421,60568
538.457,268.271,60513
538.395,266.119,60378
538.333,263.967,60303
538.27,261.815,60269
538.208,259.662,60159
538.146,257.508,60110
538.083,255.355,59993
538.021,253.2,60029
537.958,251.045,59963
537.896,248.89,60015
537.834,246.734,59999
537.771,244.578,60021
537.709,242.421,60040
537.647,240.263,60005
537.584,238.105,59972
537.522,235.947,60023
537.459,233.788,60027
537.397,231.629,60032
537.335,229.469,60057
537.272,227.308,59970
537.21,225.147,60021
537.148,222.986,60008
537.085,220.824,59963
537.023,218.662,59966
536.96,216.499,59989
536.898,214.335,60080
536.836,212.171,59999
536.773,210.007,59910
536.711,207.842,59983
553.364,768.549,59881
553.301,766.512,60142
553.239,764.475,60177
553.177,762.437,60119
553.114,760.398,60120
553.052,758.359,60245
552.99,756.32,60207
552.927,754.28,60112
552.865,752.24,60066
552.802,750.199,60123
552.74,748.158,60075
552.678,746.116,60239
552.615,744.074,60193
552.553,742.032,60119
552.491,739.989,60084
552.428,737.945,60172
552.366,735.901,60149
552.304,733.857,60111
552.241,731.812,60102
552.179,729.766,60153
552.116,727.721,60204
552.054,725.674,60083
551.992,723.628,60066
551.929,721.58,60136
551.867,719.533,60092
551.805,717.485,60040
551.742,715.436,60130
551.68,713.387,60133
551.617,711.337,60158
551.555,709.287,60093
551.493,707.237,60118
551.43,705.186,60171
551.368,703.135,60110
551.306,701.083,60094
551.243,699.031,60185
551.181,696.978,60069
551.119,694.925,60268
551.056,692.871,60257
550.994,690.817,60253
550.931,688.762,60179
550.869,686.707,60222
550.807,684.651,60259
550.744,682.595,60238
550.682,680.539,60264
550.62,678.482,60216
550.557,676.425,60222
550.495,674.367,60214
550.432,672.308,60202
550.37,670.25,60352
550.308,668.19,60263
550.245,666.131,60243
550.183,664.07,60260
550.121,662.01,60247
550.058,659.948,60271
549.996,657.887,60221
549.933,655.825,60227
549.871,653.762,60241
549.809,651.699,60269
549.746,649.636,60314
549.684,647.572,60205
549.622,645.507,60237
549.559,643.442,60194
549.497,641.377,60315
549.435,639.311,60232
549.372,637.245,60299
549.31,635.178,60329
549.247,633.111,60313
549.185,631.043,60285
549.123,628.975,60299
549.06,626.906,60365
548.998,624.837,60287
548.936,622.768,60411
548.873,620.698,60300
548.811,618.627,60390
548.748,616.556,60334
548.686,614.485,60271
548.624,612.413,60278
548.561,610.34,60361
548.499,608.267,60224
548.437,606.194,60252
548.374,604.12,60221
548.312,602.046,60169
548.249,599.971,60201
548.187,597.896,60134
548.125,595.82,60182
548.062,593.744,60217
548.0,591.667,60132
547.938,589.59,60187
547.875,587.513,60195
547.813,585.434,60123
547.751,583.356,60220
547.688,581.277,60139
547.626,579.197,60131
547.563,577.117,60156
547.501,575.037,60194
547.439,572.956,60260
547.376,570.875,60100
547.314,568.793,60182
547.252,566.71,60291
547.189,564.628,60223
547.127,562.544,60202
547.064,560.461,60149
547.002,558.376,60328
546.94,556.292,60222
546.877,554.206,60373
546.815,552.121,60349
546.753,550.035,60318
546.69,547.948,60392
546.628,545.861,60465
546.565,543.773,60539
546.503,541.685,60669
546.441,539.597,60708
546.378,537.508,60985
546.316,535.418,61111
546.254,533.328,61447
546.191,531.238,62069
546.129,529.147,63383
546.067,527.056,66500
546.004,524.964,77452
545.942,522.871,102934
545.879,520.778,114759
545.817,518.685,96949
545.755,516.591,79065
545.692,514.497,68781
545.63,512.402,64116
545.568,510.307,62309
545.505,508.211,61672
545.443,506.115,61221
545.38,504.019,60987
545.318,501.922,60828
545.256,499.824,60659
545.193,497.726,60688
545.131,495.627,60581
545.069,493.528,60595
545.006,491.429,60538
544.944,489.329,60439
544.881,487.228,60427
544.819,485.127,60433
544.757,483.026,60307
544.694,480.924,60355
544.632,478.821,60262
544.57,476.718,60288
544.507,474.615,60298
544.445,472.511,60285
544.383,470.407,60271
544.32,468.302,60333
544.258,466.197,60268
544.195,464.091,60154
544.133,461.985,60186
544.071,459.878,60188
544.008,457.771,60182
543.946,455.663,60191
543.884,453.555,60213
543.821,451.446,60262
543.759,449.337,60314
543.696,447.227,60328
543.634,445.117,60277
543.572,443.006,60345
543.509,440.895,60255
543.447,438.784,60344
543.385,436.671,60388
543.322,434.559,60465
543.26,432.446,60400
543.198,430.332,60432
543.135,428.218,60343
543.073,426.104,60263
543.01,423.989,60422
542.948,421.873,60384
542.886,419.757,60320
542.823,417.641,60389
542.761,415.524,60329
542.699,413.407,60402
542.636,411.289,60330
542.574,409.17,60345
542.511,407.051,60422
542.449,404.932,60432
542.387,402.812,60366
542.324,400.692,60460
542.262,398.571,60380
542.2,396.45,60335
542.137,394.328,60484
542.075,392.205,60326
542.012,390.083,60380
541.95,387.959,60467
541.888,385.836,60375
541.825,383.711,60431
541.763,381.587,60431
541.701,379.461,60419
541.638,377.336,60435
541.576,375.209,60397
541.514,373.083,60421
541.451,370.955,60402
541.389,368.828,60355
541.326,366.7,60432
541.264,364.571,60473
541.202,362.442,60428
541.139,360.312,60435
541.077,358.182,60404
541.015,356.051,60398
540.952,353.92,60491
540.89,351.789,60506
540.827,349.657,60594
540.765,347.524,60385
540.703,345.391,60502
540.64,343.257,60508
540.578,341.123,60559
540.516,338.989,60535
540.453,336.854,60544
540.391,334.718,60464
540.328,332.582,60523
540.266,330.445,60475
540.204,328.308,60496
540.141,326.171,60609
540.079,324.033,60629
540.017,321.894,60658
539.954,319.755,60540
539.892,317.616,60622
539.83,315.476,60655
539.767,313.335,60689
539.705,311.194,60807
539.642,309.053,60835
539.58,306.911,60931
539.518,304.768,60868
539.455,302.625,60949
539.393,300.482,61075
539.331,298.338,60922
539.268,296.194,60961
539.206,294.049,60712
539.143,291.903,60737
539.081,289.757,60679
539.019,287.611,60590
538.956,285.464,60568
538.894,283.316,60557
538.832,281.169,60521
538.769,279.02,60594
538.707,276.871,60580
538.644,274.722,60702
538.582,272.572,60595
538.52,270.421,60620
538.457,268.271,60426
538.395,266.119,60391
538.333,263.967,60263
538.27,261.815,60167
538.208,259.662,60180
538.146,257.508,60148
538.083,255.355,60033
538.021,253.2,60118
537.958,251.045,60097
537.896,248.89,60102
537.834,246.734,60081
537.771,244.578,59977
537.709,242.421,60034
537.647,240.263,60018
537.584,238.105,60078
537.522,235.947,60052
537.459,233.788,60031
537.397,231.629,60086
537.335,229.469,59985
537.272,227.308,60038
537.21,225.147,59998
537.148,222.986,60066
537.085,220.824,59986
537.023,218.662,59945
536.96,216.499,60047
536.898,214.335,59949
536.836,212.171,59985
536.773,210.007,59983
536.711,207.842,59981
553.364,768.549,59928
553.301,766.512,60194
553.239,764.475,60169
553.177,762.437,60196
553.114,760.398,60154
553.052,758.359,60168
552.99,756.32,60158
552.927,754.28,60181
552.865,752.24,60166
552.802,750.199,60118
552.74,748.158,60219
552.678,746.116,60154
552.615,744.074,60094
552.553,742.032,60156
552.491,739.989,60130
552.428,737.945,60160
552.366,735.901,60102
552.304,733.857,60158
552.241,731.812,60139
552.179,729.766,60081
552.116,727.721,60149
552.054,725.674,60231
551.992,723.628,60212
551.929,721.58,60161
551.867,719.533,60075
551.805,717.485,60189
551.742,715.436,60201
551.68,713.387,60190
551.617,711.337,60183
551.555,709.287,60198
551.493,707.237,60054
551.43,705.186,60105
551.368,703.135,60076
551.306,701.083,60173
551.243,699.031,60167
551.181,696.978,60153
551.119,694.925,60287
551.056,692.871,60223
550.994,690.817,60185
550.931,688.762,60233
550.869,686.707,60252
550.807,684.651,60168
550.744,682.595,60231
550.682,680.539,60236
550.62,678.482,60162
550.557,676.425,60163
550.495,674.367,60285
550.432,672.308,60247
550.37,670.25,60261
550.308,668.19,60248
550.245,666.131,60248
550.183,664.07,60334
550.121,662.01,60219
550.058,659.948,60246
549.996,657.887,60274
549.933,655.825,60192
549.871,653.762,60231
549.809,651.699,60258
549.746,649.636,60314
549.684,647.572,60280
549.622,645.507,60244
549.559,643.442,60254
549.497,641.377,60270
549.435,639.311,60274
549.372,637.245,60228
549.31,635.178,60386
549.247,633.111,60353
549.185,631.043,60323
549.123,628.975,60364
549.06,626.906,60329
548.998,624.837,60391
548.936,622.768,60312
548.873,620.698,60318
548.811,618.627,60384
548.748,616.556,60348
548.686,614.485,60335
548.624,612.413,60222
548.561,610.34,60181
548.499,608.267,60153
548.437,606.194,60242
548.374,604.12,60187
548.312,602.046,60282
548.249,599.971,60248
548.187,597.896,60215
548.125,595.82,60207
548.062,593.744,60248
548.0,591.667,60173
547.938,589.59,60128
547.875,587.513,60232
547.813,585.434,60189
547.751,583.356,60190
547.688,581.277,60182
547.626,579.197,60158
547.563,577.117,60114
547.501,575.037,60199
547.439,572.956,60164
547.376,570.875,60243
547.314,568.793,60248
547.252,566.71,60059
547.189,564.628,60240
547.127,562.544,60248
547.064,560.461,60255
547.002,558.376,60279
546.94,556.292,60208
546.877,554.206,60350
546.815,552.121,60340
546.753,550.035,60420
546.69,547.948,60487
546.628,545.861,60532
546.565,543.773,60573
546.503,541.685,60684
546.441,539.597,60827
546.378,537.508,60951
546.316,535.418,61174
546.254,533.328,61599
546.191,531.238,62174
546.129,529.147,63298
546.067,527.056,66276
546.004,524.964,77025
545.942,522.871,102629
545.879,520.778,114228
545.817,518.685,97180
545.755,516.591,78775
545.692,514.497,68574
545.63,512.402,64151
545.568,510.307,62468
545.505,508.211,61769
545.443,506.115,61248
545.38,504.019,61110
545.318,501.922,60919
545.256,499.824,60758
545.193,497.726,60652
545.131,495.627,60623
545.069,493.528,60447
545.006,491.429,60461
544.944,489.329,60447
544.881,487.228,60457
544.819,485.127,60339
544.757,483.026,60391
544.694,480.924,60273
544.632,478.821,60297
544.57,476.718,60266
544.507,474.615,60279
544.445,472.511,60228
544.383,470.407,60238
544.32,468.302,60210
544.258,466.197,60225
544.195,464.091,60202
544.133,461.985,60233
544.071,459.878,64321
544.008,457.771,60199
543.946,455.663,60221
543.884,453.555,60178
543.821,451.446,60305
543.759,449.337,60292
543.696,447.227,60262
543.634,445.117,60349
543.572,443.006,60319
543.509,440.895,60322
543.447,438.784,60294
543.385,436.671,60351
543.322,434.559,60464
543.26,432.446,60316
543.198,430.332,60374
543.135,428.218,60473
543.073,426.104,60402
543.01,423.989,60393
542.948,421.873,60400
542.886,419.757,60289
542.823,417.641,60414
542.761,415.524,60358
542.699,413.407,60389
542.636,411.289,60294
542.574,409.17,60383
542.511,407.051,60336
542.449,404.932,60284
542.387,402.812,60478
542.324,400.692,60396
542.262,398.571,60427
542.2,396.45,60465
542.137,394.328,60426
542.075,392.205,60296
542.012,390.083,60378
541.95,387.959,60447
541.888,385.836,60365
541.825,383.711,60437
541.763,381.587,60481
541.701,379.461,60434
541.638,377.336,60438
541.576,375.209,60437
541.514,373.083,60494
541.451,370.955,60437
541.389,368.828,60429
541.326,366.7,60486
541.264,364.571,60498
541.202,362.442,60508
541.139,360.312,60490
541.077,358.182,60464
541.015,356.051,60459
540.952,353.92,60379
540.89,351.789,60442
540.827,349.657,60393
540.765,347.524,60495
540.703,345.391,60523
540.64,343.257,60475
540.578,341.123,60448
540.516,338.989,60475
540.453,336.854,60562
540.391,334.718,60591
540.328,332.582,60598
540.266,330.445,60480
540.204,328.308,60479
540.141,326.171,60612
540.079,324.033,60552
540.017,321.894,60645
539.954,319.755,60572
539.892,317.616,60623
539.83,315.476,60638
539.767,313.335,60782
539.705,311.194,60724
539.642,309.053,60846
539.58,306.911,60975
539.518,304.768,61019
539.455,302.625,61066
539.393,300.482,60927
539.331,298.338,60900
539.268,296.194,60954
539.206,294.049,60825
539.143,291.903,60801
539.081,289.757,60746
539.019,287.611,60676
538.956,285.464,60676
538.894,283.316,60470
538.832,281.169,60634
538.769,279.02,60687
538.707,276.871,60632
538.644,274.722,60614
538.582,272.572,60660
538.52,270.421,60498
538.457,268.271,60506
538.395,266.119,60427
538.333,263.967,60339
538.27,261.815,60259
538.208,259.662,60128
538.146,257.508,60013
538.083,255.355,60059
538.021,253.2,59999
537.958,251.045,60040
537.896,248.89,60011
537.834,246.734,59997
537.771,244.578,59959
537.709,242.421,59983
537.647,240.263,60039
537.584,238.105,59946
537.522,235.947,60016
537.459,233.788,60034
537.397,231.629,60010
537.335,229.469,60021
537.272,227.308,59935
537.21,225.147,59999
537.148,222.986,59966
537.085,220.824,59978
537.023,218.662,59970
536.96,216.499,59993
536.898,214.335,59967
536.836,212.171,59944
536.773,210.007,60028
536.711,207.842,60017
536.661,206.11,60083