File: tomke/20240809/raw_data/Si_onTiO2_60mA_30mW_30sec_5acc_517nm_02.txt
Wavelength(nm), Raman shift(cm^-1), Intensity(counts)
525.364,-194.586,70275
525.301,-196.846,71095
525.239,-199.106,70892
525.177,-201.367,70814
525.114,-203.629,70864
525.052,-205.891,71170
524.99,-208.154,71052
524.927,-210.417,71142
524.865,-212.681,71216
524.802,-214.945,71063
524.74,-217.21,71452
524.678,-219.475,71293
524.615,-221.741,71502
524.553,-224.008,71550
524.491,-226.275,71504
524.428,-228.542,71463
524.366,-230.81,71454
524.304,-233.079,71614
524.241,-235.348,71812
524.179,-237.618,71753
524.116,-239.888,72144
524.054,-242.159,71836
523.992,-244.43,71989
523.929,-246.702,72016
523.867,-248.974,72251
523.805,-251.247,72261
523.742,-253.52,72678
523.68,-255.794,73150
523.617,-258.069,73590
523.555,-260.344,74186
523.493,-262.62,75493
523.43,-264.896,77013
523.368,-267.173,79291
523.306,-269.45,82242
523.243,-271.728,86100
523.181,-274.006,90601
523.119,-276.285,95185
523.056,-278.564,98714
522.994,-280.844,102746
522.931,-283.125,104861
522.869,-285.406,106555
522.807,-287.688,108747
522.744,-289.97,110084
522.682,-292.252,110623
522.62,-294.536,110628
522.557,-296.82,110797
522.495,-299.104,111233
522.432,-301.389,110839
522.37,-303.674,110998
522.308,-305.96,110866
522.245,-308.247,110429
522.183,-310.534,110256
522.121,-312.821,110261
522.058,-315.11,110161
521.996,-317.398,109613
521.933,-319.687,109275
521.871,-321.977,109097
521.809,-324.268,108626
521.746,-326.559,109140
521.684,-328.85,108824
521.622,-331.142,109058
521.559,-333.434,108213
521.497,-335.728,108982
521.435,-338.021,107978
521.372,-340.315,108576
521.31,-342.61,107823
521.247,-344.905,107934
521.185,-347.201,107806
521.123,-349.498,107826
521.06,-351.795,107260
520.998,-354.092,106945
520.936,-356.39,107195
520.873,-358.689,107034
520.811,-360.988,106184
520.748,-363.287,106116
520.686,-365.588,106026
520.624,-367.889,105798
520.561,-370.19,105699
520.499,-372.492,105668
520.437,-374.794,104986
520.374,-377.097,104660
520.312,-379.401,104933
520.249,-381.705,104511
520.187,-384.009,104487
520.125,-386.315,104609
520.062,-388.62,104860
520.0,-390.927,104211
519.938,-393.234,103859
519.875,-395.541,104248
519.813,-397.849,103628
519.751,-400.158,103660
519.688,-402.467,103621
519.626,-404.776,103118
519.563,-407.086,103047
519.501,-409.397,102536
519.439,-411.708,102415
519.376,-414.02,102142
519.314,-416.333,102180
519.252,-418.646,101773
519.189,-420.959,101551
519.127,-423.273,101625
519.064,-425.588,101579
519.002,-427.903,100897
518.94,-430.219,100887
518.877,-432.535,100662
518.815,-434.852,100139
518.753,-437.169,100335
518.69,-439.487,99453
518.628,-441.806,99374
518.565,-444.125,99345
518.503,-446.445,99074
518.441,-448.765,99166
518.378,-451.086,98791
518.316,-453.407,98486
518.254,-455.729,98986
518.191,-458.051,98366
518.129,-460.374,98184
518.067,-462.698,98254
518.004,-465.022,97890
517.942,-467.347,98023
517.879,-469.672,98021
517.817,-471.998,98193
517.755,-474.324,98266
517.692,-476.651,98003
517.63,-478.978,97816
517.568,-481.306,98309
517.505,-483.635,98432
517.443,-485.964,99073
517.38,-488.294,99274
517.318,-490.624,100689
517.256,-492.955,101393
517.193,-495.286,103208
517.131,-497.618,105405
517.069,-499.951,105896
517.006,-502.284,105184
516.944,-504.618,103566
516.881,-506.952,101679
516.819,-509.287,99698
516.757,-511.622,98208
516.694,-513.958,97585
516.632,-516.294,96902
516.57,-518.631,96380
516.507,-520.969,96458
516.445,-523.307,96153
516.383,-525.646,95824
516.32,-527.985,95865
516.258,-530.325,95746
516.195,-532.665,95468
516.133,-535.006,95119
516.071,-537.348,95091
516.008,-539.69,95175
515.946,-542.033,95255
515.884,-544.376,94779
515.821,-546.72,94905
515.759,-549.064,94830
515.696,-551.409,94562
515.634,-553.755,94477
515.572,-556.101,94409
515.509,-558.448,94245
515.447,-560.795,94163
515.385,-563.143,93926
515.322,-565.491,94064
515.26,-567.84,93727
515.198,-570.189,93928
515.135,-572.539,93942
515.073,-574.89,93487
515.01,-577.241,94098
514.948,-579.593,93704
514.886,-581.945,93672
514.823,-584.298,93417
514.761,-586.652,93679
514.699,-589.006,93496
514.636,-591.361,93628
514.574,-593.716,93347
514.511,-596.072,93391
514.449,-598.428,93351
514.387,-600.785,93498
514.324,-603.142,93398
514.262,-605.5,92887
514.2,-607.859,92877
514.137,-610.218,92698
514.075,-612.578,92836
514.012,-614.938,92292
513.95,-617.299,92267
513.888,-619.661,92522
513.825,-622.023,92116
513.763,-624.385,92478
513.701,-626.749,91830
513.638,-629.112,91747
513.576,-631.477,91540
513.514,-633.842,91546
513.451,-636.207,91172
513.389,-638.573,91308
513.326,-640.94,91088
513.264,-643.307,90939
513.202,-645.675,90783
513.139,-648.043,90337
513.077,-650.412,91009
513.015,-652.782,90628
512.952,-655.152,90652
512.89,-657.523,89966
512.827,-659.894,90234
512.765,-662.266,90145
512.703,-664.638,89955
512.64,-667.011,90023
512.578,-669.385,89948
512.516,-671.759,89451
512.453,-674.134,89617
512.391,-676.509,89215
512.328,-678.885,88934
512.266,-681.261,88713
512.204,-683.638,89283
512.141,-686.016,89085
512.079,-688.394,89158
512.017,-690.773,88715
511.954,-693.152,88463
511.892,-695.532,88273
511.83,-697.913,88333
511.767,-700.294,88213
511.705,-702.676,87689
511.642,-705.058,88159
511.58,-707.441,87897
511.518,-709.824,87729
511.455,-712.208,87271
511.393,-714.593,87272
511.331,-716.978,87177
511.268,-719.364,87366
511.206,-721.75,87040
511.143,-724.137,87149
511.081,-726.525,86753
511.019,-728.913,86645
510.956,-731.301,86610
510.894,-733.691,86569
510.832,-736.08,86459
510.769,-738.471,86396
510.707,-740.862,85796
510.644,-743.253,85933
510.582,-745.646,86232
510.52,-748.038,85345
510.457,-750.432,85505
510.395,-752.826,85511
510.333,-755.22,85392
510.27,-757.615,85384
510.208,-760.011,85126
510.146,-762.407,85195
510.083,-764.804,85044
510.021,-767.201,84761
509.958,-769.599,84374
509.896,-771.998,84648
509.834,-774.397,84446
509.771,-776.797,84008
509.709,-779.197,84206
509.647,-781.598,84479
509.584,-784,83700
509.522,-786.402,83971
509.459,-788.805,83693
509.397,-791.208,83494
509.335,-793.612,83431
509.272,-796.016,83292
509.21,-798.421,82974
509.148,-800.827,83055
509.085,-803.233,83341
509.023,-805.64,82897
508.96,-808.048,82702
508.898,-810.456,82761
508.836,-812.864,82892
508.773,-815.274,82511
508.711,-817.683,82173
525.364,-194.586,70891
525.301,-196.846,71318
525.239,-199.106,71378
525.177,-201.367,71531
525.114,-203.629,71459
525.052,-205.891,71443
524.99,-208.154,71268
524.927,-210.417,71384
524.865,-212.681,71774
524.802,-214.945,71743
524.74,-217.21,71679
524.678,-219.475,71616
524.615,-221.741,71825
524.553,-224.008,71822
524.491,-226.275,72247
524.428,-228.542,72143
524.366,-230.81,72024
524.304,-233.079,71888
524.241,-235.348,72065
524.179,-237.618,72109
524.116,-239.888,72184
524.054,-242.159,72229
523.992,-244.43,72323
523.929,-246.702,72559
523.867,-248.974,72929
523.805,-251.247,72846
523.742,-253.52,73121
523.68,-255.794,73488
523.617,-258.069,74126
523.555,-260.344,74717
523.493,-262.62,75638
523.43,-264.896,77754
523.368,-267.173,80393
523.306,-269.45,83442
523.243,-271.728,87603
523.181,-274.006,91782
523.119,-276.285,96457
523.056,-278.564,100363
522.994,-280.844,104002
522.931,-283.125,106987
522.869,-285.406,109846
522.807,-287.688,110677
522.744,-289.97,112755
522.682,-292.252,113120
522.62,-294.536,113248
522.557,-296.82,113281
522.495,-299.104,113248
522.432,-301.389,113217
522.37,-303.674,113506
522.308,-305.96,112871
522.245,-308.247,112886
522.183,-310.534,113016
522.121,-312.821,112723
522.058,-315.11,112625
521.996,-317.398,112947
521.933,-319.687,112537
521.871,-321.977,112168
521.809,-324.268,111576
521.746,-326.559,111113
521.684,-328.85,111269
521.622,-331.142,111173
521.559,-333.434,111225
521.497,-335.728,110651
521.435,-338.021,110445
521.372,-340.315,110843
521.31,-342.61,110496
521.247,-344.905,110606
521.185,-347.201,110443
521.123,-349.498,110590
521.06,-351.795,110063
520.998,-354.092,109552
520.936,-356.39,109438
520.873,-358.689,109418
520.811,-360.988,109256
520.748,-363.287,108771
520.686,-365.588,108347
520.624,-367.889,108038
520.561,-370.19,108031
520.499,-372.492,107633
520.437,-374.794,107731
520.374,-377.097,107053
520.312,-379.401,107539
520.249,-381.705,106977
520.187,-384.009,107066
520.125,-386.315,106624
520.062,-388.62,106610
520.0,-390.927,106347
519.938,-393.234,106136
519.875,-395.541,106195
519.813,-397.849,106364
519.751,-400.158,105952
519.688,-402.467,105768
519.626,-404.776,105590
519.563,-407.086,105405
519.501,-409.397,105397
519.439,-411.708,104853
519.376,-414.02,104790
519.314,-416.333,104699
519.252,-418.646,104209
519.189,-420.959,104303
519.127,-423.273,103880
519.064,-425.588,103422
519.002,-427.903,103410
518.94,-430.219,102688
518.877,-432.535,103271
518.815,-434.852,102466
518.753,-437.169,102138
518.69,-439.487,101549
518.628,-441.806,101469
518.565,-444.125,101368
518.503,-446.445,101367
518.441,-448.765,101277
518.378,-451.086,100778
518.316,-453.407,100771
518.254,-455.729,108270
518.191,-458.051,100320
518.129,-460.374,100886
518.067,-462.698,100609
518.004,-465.022,100178
517.942,-467.347,100821
517.879,-469.672,100559
517.817,-471.998,100351
517.755,-474.324,100320
517.692,-476.651,100051
517.63,-478.978,100443
517.568,-481.306,100320
517.505,-483.635,100676
517.443,-485.964,100946
517.38,-488.294,101596
517.318,-490.624,102290
517.256,-492.955,103812
517.193,-495.286,105071
517.131,-497.618,106874
517.069,-499.951,108321
517.006,-502.284,107096
516.944,-504.618,105422
516.881,-506.952,102995
516.819,-509.287,100908
516.757,-511.622,100088
516.694,-513.958,99532
516.632,-516.294,99147
516.57,-518.631,98807
516.507,-520.969,98404
516.445,-523.307,98209
516.383,-525.646,98226
516.32,-527.985,97603
516.258,-530.325,97138
516.195,-532.665,97642
516.133,-535.006,97229
516.071,-537.348,97594
516.008,-539.69,96929
515.946,-542.033,97323
515.884,-544.376,96808
515.821,-546.72,96862
515.759,-549.064,96540
515.696,-551.409,96415
515.634,-553.755,95868
515.572,-556.101,96247
515.509,-558.448,96170
515.447,-560.795,96441
515.385,-563.143,95957
515.322,-565.491,96183
515.26,-567.84,95876
515.198,-570.189,95848
515.135,-572.539,95692
515.073,-574.89,96079
515.01,-577.241,96084
514.948,-579.593,95632
514.886,-581.945,95652
514.823,-584.298,95627
514.761,-586.652,95129
514.699,-589.006,95319
514.636,-591.361,95505
514.574,-593.716,95260
514.511,-596.072,94992
514.449,-598.428,95444
514.387,-600.785,95033
514.324,-603.142,94393
514.262,-605.5,94729
514.2,-607.859,94621
514.137,-610.218,94369
514.075,-612.578,94180
514.012,-614.938,94645
513.95,-617.299,93740
513.888,-619.661,93939
513.825,-622.023,94191
513.763,-624.385,94004
513.701,-626.749,93943
513.638,-629.112,93885
513.576,-631.477,93345
513.514,-633.842,93324
513.451,-636.207,93233
513.389,-638.573,93055
513.326,-640.94,92729
513.264,-643.307,93034
513.202,-645.675,93043
513.139,-648.043,92806
513.077,-650.412,92451
513.015,-652.782,92462
512.952,-655.152,92286
512.89,-657.523,92281
512.827,-659.894,91992
512.765,-662.266,91849
512.703,-664.638,91214
512.64,-667.011,91894
512.578,-669.385,91748
512.516,-671.759,91361
512.453,-674.134,91378
512.391,-676.509,91035
512.328,-678.885,91095
512.266,-681.261,91275
512.204,-683.638,90935
512.141,-686.016,90372
512.079,-688.394,90241
512.017,-690.773,89979
511.954,-693.152,90304
511.892,-695.532,89919
511.83,-697.913,89662
511.767,-700.294,89664
511.705,-702.676,89642
511.642,-705.058,89129
511.58,-707.441,89302
511.518,-709.824,89261
511.455,-712.208,88498
511.393,-714.593,88810
511.331,-716.978,89092
511.268,-719.364,88863
511.206,-721.75,88664
511.143,-724.137,88458
511.081,-726.525,88568
511.019,-728.913,88282
510.956,-731.301,88045
510.894,-733.691,88028
510.832,-736.08,88065
510.769,-738.471,87625
510.707,-740.862,87707
510.644,-743.253,87110
510.582,-745.646,87315
510.52,-748.038,87022
510.457,-750.432,87318
510.395,-752.826,86817
510.333,-755.22,86807
510.27,-757.615,86195
510.208,-760.011,86885
510.146,-762.407,86673
510.083,-764.804,86005
510.021,-767.201,86459
509.958,-769.599,85933
509.896,-771.998,85884
509.834,-774.397,85422
509.771,-776.797,85272
509.709,-779.197,85097
509.647,-781.598,85294
509.584,-784,85398
509.522,-786.402,84976
509.459,-788.805,85415
509.397,-791.208,84896
509.335,-793.612,84556
509.272,-796.016,84504
509.21,-798.421,84519
509.148,-800.827,84794
509.085,-803.233,84517
509.023,-805.64,84234
508.96,-808.048,83851
508.898,-810.456,84170
508.836,-812.864,84203
508.773,-815.274,84070
508.711,-817.683,83377
525.364,-194.586,71503
525.301,-196.846,71800
525.239,-199.106,71782
525.177,-201.367,71701
525.114,-203.629,71646
525.052,-205.891,71789
524.99,-208.154,71901
524.927,-210.417,71856
524.865,-212.681,72094
524.802,-214.945,71881
524.74,-217.21,71874
524.678,-219.475,72297
524.615,-221.741,72283
524.553,-224.008,72052
524.491,-226.275,72484
524.428,-228.542,72330
524.366,-230.81,72463
524.304,-233.079,72574
524.241,-235.348,72397
524.179,-237.618,72475
524.116,-239.888,72788
524.054,-242.159,72777
523.992,-244.43,72912
523.929,-246.702,72970
523.867,-248.974,73140
523.805,-251.247,73180
523.742,-253.52,73457
523.68,-255.794,73702
523.617,-258.069,74466
523.555,-260.344,75126
523.493,-262.62,76628
523.43,-264.896,78563
523.368,-267.173,81277
523.306,-269.45,84356
523.243,-271.728,88557
523.181,-274.006,93443
523.119,-276.285,98359
523.056,-278.564,102636
522.994,-280.844,106315
522.931,-283.125,109425
522.869,-285.406,111501
522.807,-287.688,113551
522.744,-289.97,114950
522.682,-292.252,116084
522.62,-294.536,116083
522.557,-296.82,115967
522.495,-299.104,116250
522.432,-301.389,116371
522.37,-303.674,115648
522.308,-305.96,115777
522.245,-308.247,115757
522.183,-310.534,115025
522.121,-312.821,115073
522.058,-315.11,115010
521.996,-317.398,114920
521.933,-319.687,114954
521.871,-321.977,115132
521.809,-324.268,114489
521.746,-326.559,114371
521.684,-328.85,114087
521.622,-331.142,114412
521.559,-333.434,114022
521.497,-335.728,113759
521.435,-338.021,113211
521.372,-340.315,113298
521.31,-342.61,113287
521.247,-344.905,113388
521.185,-347.201,112590
521.123,-349.498,112421
521.06,-351.795,112039
520.998,-354.092,111745
520.936,-356.39,112016
520.873,-358.689,111873
520.811,-360.988,111868
520.748,-363.287,110768
520.686,-365.588,110724
520.624,-367.889,110713
520.561,-370.19,110449
520.499,-372.492,109921
520.437,-374.794,109591
520.374,-377.097,110087
520.312,-379.401,109797
520.249,-381.705,109329
520.187,-384.009,108910
520.125,-386.315,108993
520.062,-388.62,109653
520.0,-390.927,109082
519.938,-393.234,108182
519.875,-395.541,108558
519.813,-397.849,108897
519.751,-400.158,108312
519.688,-402.467,108296
519.626,-404.776,107888
519.563,-407.086,107253
519.501,-409.397,107607
519.439,-411.708,107368
519.376,-414.02,106694
519.314,-416.333,106672
519.252,-418.646,106753
519.189,-420.959,106406
519.127,-423.273,105861
519.064,-425.588,105651
519.002,-427.903,105492
518.94,-430.219,105009
518.877,-432.535,104998
518.815,-434.852,104168
518.753,-437.169,104160
518.69,-439.487,103877
518.628,-441.806,103519
518.565,-444.125,103257
518.503,-446.445,103848
518.441,-448.765,102838
518.378,-451.086,103140
518.316,-453.407,103030
518.254,-455.729,103219
518.191,-458.051,103392
518.129,-460.374,102601
518.067,-462.698,102505
518.004,-465.022,102914
517.942,-467.347,102706
517.879,-469.672,102319
517.817,-471.998,101938
517.755,-474.324,102233
517.692,-476.651,102330
517.63,-478.978,101846
517.568,-481.306,102356
517.505,-483.635,102412
517.443,-485.964,103348
517.38,-488.294,103576
517.318,-490.624,104203
517.256,-492.955,105933
517.193,-495.286,107452
517.131,-497.618,109252
517.069,-499.951,109952
517.006,-502.284,109392
516.944,-504.618,106760
516.881,-506.952,105325
516.819,-509.287,103295
516.757,-511.622,102546
516.694,-513.958,101293
516.632,-516.294,101180
516.57,-518.631,100300
516.507,-520.969,100055
516.445,-523.307,100658
516.383,-525.646,100008
516.32,-527.985,99405
516.258,-530.325,99700
516.195,-532.665,98932
516.133,-535.006,99593
516.071,-537.348,99357
516.008,-539.69,99248
515.946,-542.033,98874
515.884,-544.376,99161
515.821,-546.72,98724
515.759,-549.064,98132
515.696,-551.409,98730
515.634,-553.755,98125
515.572,-556.101,98574
515.509,-558.448,98306
515.447,-560.795,98366
515.385,-563.143,98100
515.322,-565.491,97911
515.26,-567.84,97590
515.198,-570.189,98008
515.135,-572.539,97378
515.073,-574.89,97581
515.01,-577.241,97669
514.948,-579.593,97937
514.886,-581.945,97878
514.823,-584.298,97677
514.761,-586.652,97534
514.699,-589.006,97391
514.636,-591.361,96969
514.574,-593.716,97070
514.511,-596.072,96657
514.449,-598.428,97067
514.387,-600.785,97023
514.324,-603.142,96622
514.262,-605.5,96244
514.2,-607.859,96729
514.137,-610.218,96208
514.075,-612.578,96066
514.012,-614.938,96473
513.95,-617.299,95825
513.888,-619.661,95848
513.825,-622.023,95542
513.763,-624.385,95776
513.701,-626.749,95614
513.638,-629.112,95547
513.576,-631.477,95112
513.514,-633.842,95296
513.451,-636.207,94583
513.389,-638.573,94839
513.326,-640.94,94406
513.264,-643.307,94324
513.202,-645.675,94714
513.139,-648.043,94259
513.077,-650.412,94078
513.015,-652.782,94023
512.952,-655.152,93687
512.89,-657.523,93947
512.827,-659.894,93770
512.765,-662.266,93368
512.703,-664.638,93603
512.64,-667.011,93229
512.578,-669.385,92975
512.516,-671.759,92901
512.453,-674.134,92851
512.391,-676.509,92615
512.328,-678.885,92794
512.266,-681.261,92429
512.204,-683.638,92779
512.141,-686.016,92120
512.079,-688.394,91797
512.017,-690.773,91704
511.954,-693.152,91922
511.892,-695.532,91598
511.83,-697.913,91262
511.767,-700.294,91380
511.705,-702.676,91432
511.642,-705.058,90563
511.58,-707.441,90906
511.518,-709.824,90872
511.455,-712.208,90737
511.393,-714.593,90208
511.331,-716.978,90844
511.268,-719.364,90314
511.206,-721.75,90345
511.143,-724.137,89607
511.081,-726.525,89716
511.019,-728.913,89655
510.956,-731.301,89858
510.894,-733.691,89546
510.832,-736.08,89765
510.769,-738.471,89090
510.707,-740.862,89277
510.644,-743.253,89128
510.582,-745.646,88729
510.52,-748.038,88882
510.457,-750.432,88681
510.395,-752.826,89007
510.333,-755.22,88038
510.27,-757.615,88327
510.208,-760.011,87820
510.146,-762.407,88273
510.083,-764.804,87851
510.021,-767.201,87914
509.958,-769.599,87379
509.896,-771.998,87473
509.834,-774.397,87147
509.771,-776.797,86874
509.709,-779.197,87053
509.647,-781.598,86780
509.584,-784,86413
509.522,-786.402,86498
509.459,-788.805,86696
509.397,-791.208,86372
509.335,-793.612,86318
509.272,-796.016,86111
509.21,-798.421,85811
509.148,-800.827,85652
509.085,-803.233,86065
509.023,-805.64,85703
508.96,-808.048,85438
508.898,-810.456,85392
508.836,-812.864,85112
508.773,-815.274,84906
508.711,-817.683,84535
525.364,-194.586,71670
525.301,-196.846,72123
525.239,-199.106,71863
525.177,-201.367,71908
525.114,-203.629,72161
525.052,-205.891,72069
524.99,-208.154,72468
524.927,-210.417,72417
524.865,-212.681,72103
524.802,-214.945,72366
524.74,-217.21,72497
524.678,-219.475,72395
524.615,-221.741,72458
524.553,-224.008,72695
524.491,-226.275,72692
524.428,-228.542,72761
524.366,-230.81,72898
524.304,-233.079,72715
524.241,-235.348,72823
524.179,-237.618,72817
524.116,-239.888,72938
524.054,-242.159,73264
523.992,-244.43,72975
523.929,-246.702,73035
523.867,-248.974,73466
523.805,-251.247,73404
523.742,-253.52,73740
523.68,-255.794,74204
523.617,-258.069,74768
523.555,-260.344,75692
523.493,-262.62,76981
523.43,-264.896,78452
523.368,-267.173,82101
523.306,-269.45,85289
523.243,-271.728,89509
523.181,-274.006,94660
523.119,-276.285,99636
523.056,-278.564,104093
522.994,-280.844,108014
522.931,-283.125,111977
522.869,-285.406,114145
522.807,-287.688,115280
522.744,-289.97,117114
522.682,-292.252,117962
522.62,-294.536,118085
522.557,-296.82,118126
522.495,-299.104,118583
522.432,-301.389,118420
522.37,-303.674,118475
522.308,-305.96,118192
522.245,-308.247,117844
522.183,-310.534,118004
522.121,-312.821,116957
522.058,-315.11,117881
521.996,-317.398,117240
521.933,-319.687,117208
521.871,-321.977,117101
521.809,-324.268,116866
521.746,-326.559,116644
521.684,-328.85,116192
521.622,-331.142,115708
521.559,-333.434,115982
521.497,-335.728,115955
521.435,-338.021,116113
521.372,-340.315,115815
521.31,-342.61,115411
521.247,-344.905,115058
521.185,-347.201,114710
521.123,-349.498,114792
521.06,-351.795,114347
520.998,-354.092,114354
520.936,-356.39,114440
520.873,-358.689,114201
520.811,-360.988,113730
520.748,-363.287,113226
520.686,-365.588,112989
520.624,-367.889,113436
520.561,-370.19,112224
520.499,-372.492,111973
520.437,-374.794,111752
520.374,-377.097,111981
520.312,-379.401,111326
520.249,-381.705,111508
520.187,-384.009,111609
520.125,-386.315,111155
520.062,-388.62,110819
520.0,-390.927,110921
519.938,-393.234,110802
519.875,-395.541,110332
519.813,-397.849,110446
519.751,-400.158,110265
519.688,-402.467,109923
519.626,-404.776,110210
519.563,-407.086,110130
519.501,-409.397,109667
519.439,-411.708,109022
519.376,-414.02,109141
519.314,-416.333,109149
519.252,-418.646,108752
519.189,-420.959,108242
519.127,-423.273,107902
519.064,-425.588,107754
519.002,-427.903,107497
518.94,-430.219,107027
518.877,-432.535,106523
518.815,-434.852,106412
518.753,-437.169,106069
518.69,-439.487,105744
518.628,-441.806,105694
518.565,-444.125,105419
518.503,-446.445,105646
518.441,-448.765,105394
518.378,-451.086,105164
518.316,-453.407,105147
518.254,-455.729,105123
518.191,-458.051,105162
518.129,-460.374,105013
518.067,-462.698,104679
518.004,-465.022,104538
517.942,-467.347,104384
517.879,-469.672,104009
517.817,-471.998,103910
517.755,-474.324,103959
517.692,-476.651,104006
517.63,-478.978,103717
517.568,-481.306,103427
517.505,-483.635,104101
517.443,-485.964,104862
517.38,-488.294,105235
517.318,-490.624,105589
517.256,-492.955,107524
517.193,-495.286,109690
517.131,-497.618,111105
517.069,-499.951,112107
517.006,-502.284,111823
516.944,-504.618,109031
516.881,-506.952,107029
516.819,-509.287,105301
516.757,-511.622,103690
516.694,-513.958,103436
516.632,-516.294,103045
516.57,-518.631,102749
516.507,-520.969,102040
516.445,-523.307,102020
516.383,-525.646,101623
516.32,-527.985,100798
516.258,-530.325,101433
516.195,-532.665,100940
516.133,-535.006,101049
516.071,-537.348,100686
516.008,-539.69,100987
515.946,-542.033,100833
515.884,-544.376,100550
515.821,-546.72,100230
515.759,-549.064,100500
515.696,-551.409,100629
515.634,-553.755,99871
515.572,-556.101,100428
515.509,-558.448,100247
515.447,-560.795,99806
515.385,-563.143,99630
515.322,-565.491,99273
515.26,-567.84,99586
515.198,-570.189,99689
515.135,-572.539,99447
515.073,-574.89,99234
515.01,-577.241,99690
514.948,-579.593,99266
514.886,-581.945,98889
514.823,-584.298,99588
514.761,-586.652,99055
514.699,-589.006,98851
514.636,-591.361,98871
514.574,-593.716,99190
514.511,-596.072,98849
514.449,-598.428,98533
514.387,-600.785,98517
514.324,-603.142,98421
514.262,-605.5,98239
514.2,-607.859,97936
514.137,-610.218,98205
514.075,-612.578,97829
514.012,-614.938,97643
513.95,-617.299,97464
513.888,-619.661,97221
513.825,-622.023,97500
513.763,-624.385,96966
513.701,-626.749,97020
513.638,-629.112,96784
513.576,-631.477,96892
513.514,-633.842,96731
513.451,-636.207,96483
513.389,-638.573,96459
513.326,-640.94,96265
513.264,-643.307,96162
513.202,-645.675,95898
513.139,-648.043,95670
513.077,-650.412,96222
513.015,-652.782,95692
512.952,-655.152,95269
512.89,-657.523,95317
512.827,-659.894,95146
512.765,-662.266,95019
512.703,-664.638,94664
512.64,-667.011,94889
512.578,-669.385,94822
512.516,-671.759,94559
512.453,-674.134,94224
512.391,-676.509,94053
512.328,-678.885,93727
512.266,-681.261,93837
512.204,-683.638,93718
512.141,-686.016,93616
512.079,-688.394,93335
512.017,-690.773,93645
511.954,-693.152,93061
511.892,-695.532,93244
511.83,-697.913,92850
511.767,-700.294,92635
511.705,-702.676,92365
511.642,-705.058,92613
511.58,-707.441,91994
511.518,-709.824,92243
511.455,-712.208,92137
511.393,-714.593,91614
511.331,-716.978,91804
511.268,-719.364,91754
511.206,-721.75,91744
511.143,-724.137,91570
511.081,-726.525,90977
511.019,-728.913,91217
510.956,-731.301,91245
510.894,-733.691,90850
510.832,-736.08,90715
510.769,-738.471,90591
510.707,-740.862,90356
510.644,-743.253,90257
510.582,-745.646,90295
510.52,-748.038,89959
510.457,-750.432,89537
510.395,-752.826,89463
510.333,-755.22,89739
510.27,-757.615,89743
510.208,-760.011,89244
510.146,-762.407,89225
510.083,-764.804,88416
510.021,-767.201,88863
509.958,-769.599,88531
509.896,-771.998,88220
509.834,-774.397,88480
509.771,-776.797,88592
509.709,-779.197,87968
509.647,-781.598,87855
509.584,-784,87977
509.522,-786.402,88089
509.459,-788.805,87565
509.397,-791.208,87695
509.335,-793.612,87318
509.272,-796.016,87114
509.21,-798.421,86878
509.148,-800.827,86761
509.085,-803.233,86655
509.023,-805.64,86824
508.96,-808.048,86483
508.898,-810.456,86123
508.836,-812.864,86443
508.773,-815.274,86008
508.711,-817.683,86258
525.364,-194.586,71921
525.301,-196.846,72129
525.239,-199.106,72132
525.177,-201.367,72308
525.114,-203.629,72499
525.052,-205.891,72256
524.99,-208.154,72402
524.927,-210.417,72513
524.865,-212.681,73029
524.802,-214.945,72515
524.74,-217.21,72787
524.678,-219.475,72664
524.615,-221.741,72764
524.553,-224.008,72981
524.491,-226.275,72942
524.428,-228.542,73089
524.366,-230.81,73178
524.304,-233.079,72854
524.241,-235.348,73021
524.179,-237.618,73095
524.116,-239.888,73162
524.054,-242.159,73366
523.992,-244.43,73245
523.929,-246.702,73668
523.867,-248.974,73682
523.805,-251.247,74104
523.742,-253.52,73950
523.68,-255.794,74514
523.617,-258.069,75196
523.555,-260.344,76070
523.493,-262.62,77531
523.43,-264.896,79421
523.368,-267.173,82051
523.306,-269.45,86340
523.243,-271.728,90646
523.181,-274.006,95598
523.119,-276.285,100516
523.056,-278.564,105287
522.994,-280.844,109890
522.931,-283.125,113440
522.869,-285.406,115262
522.807,-287.688,116795
522.744,-289.97,118419
522.682,-292.252,119008
522.62,-294.536,120715
522.557,-296.82,119764
522.495,-299.104,119909
522.432,-301.389,119588
522.37,-303.674,119848
522.308,-305.96,119873
522.245,-308.247,119663
522.183,-310.534,119865
522.121,-312.821,119758
522.058,-315.11,119446
521.996,-317.398,118632
521.933,-319.687,118859
521.871,-321.977,119207
521.809,-324.268,117872
521.746,-326.559,117923
521.684,-328.85,117632
521.622,-331.142,117161
521.559,-333.434,117622
521.497,-335.728,117942
521.435,-338.021,117276
521.372,-340.315,117003
521.31,-342.61,116940
521.247,-344.905,117226
521.185,-347.201,116771
521.123,-349.498,116160
521.06,-351.795,116686
520.998,-354.092,116398
520.936,-356.39,116169
520.873,-358.689,115077
520.811,-360.988,115088
520.748,-363.287,115158
520.686,-365.588,114629
520.624,-367.889,113570
520.561,-370.19,114137
520.499,-372.492,113360
520.437,-374.794,113579
520.374,-377.097,113385
520.312,-379.401,112949
520.249,-381.705,112767
520.187,-384.009,112832
520.125,-386.315,112817
520.062,-388.62,112714
520.0,-390.927,112764
519.938,-393.234,112709
519.875,-395.541,111904
519.813,-397.849,112183
519.751,-400.158,111815
519.688,-402.467,111191
519.626,-404.776,111929
519.563,-407.086,111417
519.501,-409.397,110739
519.439,-411.708,110669
519.376,-414.02,110285
519.314,-416.333,110451
519.252,-418.646,110710
519.189,-420.959,109982
519.127,-423.273,108909
519.064,-425.588,109420
519.002,-427.903,108373
518.94,-430.219,108576
518.877,-432.535,108433
518.815,-434.852,108037
518.753,-437.169,107394
518.69,-439.487,107484
518.628,-441.806,107312
518.565,-444.125,106980
518.503,-446.445,106688
518.441,-448.765,106489
518.378,-451.086,106304
518.316,-453.407,106529
518.254,-455.729,106120
518.191,-458.051,106436
518.129,-460.374,106372
518.067,-462.698,106122
518.004,-465.022,105842
517.942,-467.347,105663
517.879,-469.672,105078
517.817,-471.998,105555
517.755,-474.324,105590
517.692,-476.651,105699
517.63,-478.978,105629
517.568,-481.306,105338
517.505,-483.635,106058
517.443,-485.964,106297
517.38,-488.294,106806
517.318,-490.624,107628
517.256,-492.955,109064
517.193,-495.286,110471
517.131,-497.618,112192
517.069,-499.951,113310
517.006,-502.284,112693
516.944,-504.618,109937
516.881,-506.952,108096
516.819,-509.287,106708
516.757,-511.622,105330
516.694,-513.958,105043
516.632,-516.294,104081
516.57,-518.631,103823
516.507,-520.969,103182
516.445,-523.307,103631
516.383,-525.646,103025
516.32,-527.985,102641
516.258,-530.325,102363
516.195,-532.665,102208
516.133,-535.006,102386
516.071,-537.348,102276
516.008,-539.69,101978
515.946,-542.033,102077
515.884,-544.376,101615
515.821,-546.72,101736
515.759,-549.064,101793
515.696,-551.409,101322
515.634,-553.755,101689
515.572,-556.101,101376
515.509,-558.448,101225
515.447,-560.795,101329
515.385,-563.143,100882
515.322,-565.491,101240
515.26,-567.84,100822
515.198,-570.189,100582
515.135,-572.539,100800
515.073,-574.89,100802
515.01,-577.241,100375
514.948,-579.593,100196
514.886,-581.945,100627
514.823,-584.298,100377
514.761,-586.652,100736
514.699,-589.006,100115
514.636,-591.361,100071
514.574,-593.716,99875
514.511,-596.072,99797
514.449,-598.428,99970
514.387,-600.785,99466
514.324,-603.142,99296
514.262,-605.5,99010
514.2,-607.859,99241
514.137,-610.218,99361
514.075,-612.578,99233
514.012,-614.938,98608
513.95,-617.299,98804
513.888,-619.661,98851
513.825,-622.023,98538
513.763,-624.385,98290
513.701,-626.749,98281
513.638,-629.112,98019
513.576,-631.477,97892
513.514,-633.842,97466
513.451,-636.207,97926
513.389,-638.573,97846
513.326,-640.94,97159
513.264,-643.307,97119
513.202,-645.675,97359
513.139,-648.043,97131
513.077,-650.412,96968
513.015,-652.782,96450
512.952,-655.152,96525
512.89,-657.523,96379
512.827,-659.894,96401
512.765,-662.266,96643
512.703,-664.638,95870
512.64,-667.011,95939
512.578,-669.385,95680
512.516,-671.759,95342
512.453,-674.134,95434
512.391,-676.509,95349
512.328,-678.885,94998
512.266,-681.261,95500
512.204,-683.638,94601
512.141,-686.016,94759
512.079,-688.394,94941
512.017,-690.773,94332
511.954,-693.152,94335
511.892,-695.532,94275
511.83,-697.913,94527
511.767,-700.294,93551
511.705,-702.676,93399
511.642,-705.058,93098
511.58,-707.441,93782
511.518,-709.824,93257
511.455,-712.208,93163
511.393,-714.593,93337
511.331,-716.978,92803
511.268,-719.364,92373
511.206,-721.75,92931
511.143,-724.137,92213
511.081,-726.525,92278
511.019,-728.913,92042
510.956,-731.301,91872
510.894,-733.691,92077
510.832,-736.08,91753
510.769,-738.471,91640
510.707,-740.862,91463
510.644,-743.253,91339
510.582,-745.646,91117
510.52,-748.038,90613
510.457,-750.432,90812
510.395,-752.826,90683
510.333,-755.22,90494
510.27,-757.615,90519
510.208,-760.011,90283
510.146,-762.407,90308
510.083,-764.804,89971
510.021,-767.201,90255
509.958,-769.599,89822
509.896,-771.998,89581
509.834,-774.397,89045
509.771,-776.797,88916
509.709,-779.197,89152
509.647,-781.598,88884
509.584,-784,89048
509.522,-786.402,88859
509.459,-788.805,88211
509.397,-791.208,88497
509.335,-793.612,88028
509.272,-796.016,87754
509.21,-798.421,88137
509.148,-800.827,87677
509.085,-803.233,87490
509.023,-805.64,87480
508.96,-808.048,87553
508.898,-810.456,87377
508.836,-812.864,87223
508.773,-815.274,87082
508.711,-817.683,86655
508.661,-819.612,86972