File: tomke/20240809/raw_data/Si_onTiO2_0mA_30mW_30sec_5acc_517nm.txt
Wavelength(nm), Raman shift(cm^-1), Intensity(counts)
525.364,-194.586,59823
525.301,-196.846,60086
525.239,-199.106,59986
525.177,-201.367,60022
525.114,-203.629,60063
525.052,-205.891,59987
524.99,-208.154,60032
524.927,-210.417,59952
524.865,-212.681,59990
524.802,-214.945,60030
524.74,-217.21,59920
524.678,-219.475,59977
524.615,-221.741,60023
524.553,-224.008,60018
524.491,-226.275,59984
524.428,-228.542,60057
524.366,-230.81,59951
524.304,-233.079,60019
524.241,-235.348,59913
524.179,-237.618,60005
524.116,-239.888,60082
524.054,-242.159,59951
523.992,-244.43,59972
523.929,-246.702,60003
523.867,-248.974,60037
523.805,-251.247,60013
523.742,-253.52,59981
523.68,-255.794,59940
523.617,-258.069,59968
523.555,-260.344,59955
523.493,-262.62,59957
523.43,-264.896,59969
523.368,-267.173,60012
523.306,-269.45,60102
523.243,-271.728,60076
523.181,-274.006,60102
523.119,-276.285,60139
523.056,-278.564,60142
522.994,-280.844,60137
522.931,-283.125,60138
522.869,-285.406,60213
522.807,-287.688,60240
522.744,-289.97,60094
522.682,-292.252,60228
522.62,-294.536,60238
522.557,-296.82,60220
522.495,-299.104,60280
522.432,-301.389,60242
522.37,-303.674,60241
522.308,-305.96,60300
522.245,-308.247,60211
522.183,-310.534,60296
522.121,-312.821,60203
522.058,-315.11,60223
521.996,-317.398,60158
521.933,-319.687,60090
521.871,-321.977,60197
521.809,-324.268,60196
521.746,-326.559,60128
521.684,-328.85,60153
521.622,-331.142,60175
521.559,-333.434,60100
521.497,-335.728,60118
521.435,-338.021,60203
521.372,-340.315,60236
521.31,-342.61,60111
521.247,-344.905,60113
521.185,-347.201,60176
521.123,-349.498,60138
521.06,-351.795,60159
520.998,-354.092,60089
520.936,-356.39,60092
520.873,-358.689,60042
520.811,-360.988,60114
520.748,-363.287,60066
520.686,-365.588,60048
520.624,-367.889,60057
520.561,-370.19,60092
520.499,-372.492,60078
520.437,-374.794,60042
520.374,-377.097,60120
520.312,-379.401,60066
520.249,-381.705,60066
520.187,-384.009,60059
520.125,-386.315,60118
520.062,-388.62,60015
520.0,-390.927,60083
519.938,-393.234,60071
519.875,-395.541,60041
519.813,-397.849,60071
519.751,-400.158,60038
519.688,-402.467,60131
519.626,-404.776,60118
519.563,-407.086,60102
519.501,-409.397,60078
519.439,-411.708,60096
519.376,-414.02,60045
519.314,-416.333,60063
519.252,-418.646,60084
519.189,-420.959,60105
519.127,-423.273,60109
519.064,-425.588,60041
519.002,-427.903,60153
518.94,-430.219,60030
518.877,-432.535,60137
518.815,-434.852,60120
518.753,-437.169,60006
518.69,-439.487,59993
518.628,-441.806,60026
518.565,-444.125,60004
518.503,-446.445,60055
518.441,-448.765,60113
518.378,-451.086,60025
518.316,-453.407,60087
518.254,-455.729,60056
518.191,-458.051,60017
518.129,-460.374,60000
518.067,-462.698,60107
518.004,-465.022,60034
517.942,-467.347,60014
517.879,-469.672,59989
517.817,-471.998,59950
517.755,-474.324,60062
517.692,-476.651,60000
517.63,-478.978,60010
517.568,-481.306,59976
517.505,-483.635,60058
517.443,-485.964,59995
517.38,-488.294,60045
517.318,-490.624,60061
517.256,-492.955,60041
517.193,-495.286,60042
517.131,-497.618,60040
517.069,-499.951,60058
517.006,-502.284,60056
516.944,-504.618,60110
516.881,-506.952,60096
516.819,-509.287,60284
516.757,-511.622,60490
516.694,-513.958,60902
516.632,-516.294,62581
516.57,-518.631,65873
516.507,-520.969,66446
516.445,-523.307,63513
516.383,-525.646,61676
516.32,-527.985,60707
516.258,-530.325,60232
516.195,-532.665,60190
516.133,-535.006,60179
516.071,-537.348,60105
516.008,-539.69,60037
515.946,-542.033,60108
515.884,-544.376,60121
515.821,-546.72,60019
515.759,-549.064,60064
515.696,-551.409,60116
515.634,-553.755,60013
515.572,-556.101,60023
515.509,-558.448,59978
515.447,-560.795,60038
515.385,-563.143,60075
515.322,-565.491,60026
515.26,-567.84,59988
515.198,-570.189,60004
515.135,-572.539,60005
515.073,-574.89,60068
515.01,-577.241,59994
514.948,-579.593,60044
514.886,-581.945,60065
514.823,-584.298,60010
514.761,-586.652,60062
514.699,-589.006,60010
514.636,-591.361,60121
514.574,-593.716,60085
514.511,-596.072,60096
514.449,-598.428,60054
514.387,-600.785,60034
514.324,-603.142,59974
514.262,-605.5,59966
514.2,-607.859,59961
514.137,-610.218,60012
514.075,-612.578,60054
514.012,-614.938,60097
513.95,-617.299,59961
513.888,-619.661,60022
513.825,-622.023,60052
513.763,-624.385,60084
513.701,-626.749,60049
513.638,-629.112,60008
513.576,-631.477,59987
513.514,-633.842,59985
513.451,-636.207,60033
513.389,-638.573,60010
513.326,-640.94,59970
513.264,-643.307,59966
513.202,-645.675,60055
513.139,-648.043,59990
513.077,-650.412,59968
513.015,-652.782,59954
512.952,-655.152,59948
512.89,-657.523,59947
512.827,-659.894,59955
512.765,-662.266,59976
512.703,-664.638,59908
512.64,-667.011,60037
512.578,-669.385,59948
512.516,-671.759,60002
512.453,-674.134,60043
512.391,-676.509,60073
512.328,-678.885,60032
512.266,-681.261,59938
512.204,-683.638,60017
512.141,-686.016,60046
512.079,-688.394,60021
512.017,-690.773,60012
511.954,-693.152,60024
511.892,-695.532,60024
511.83,-697.913,60034
511.767,-700.294,60019
511.705,-702.676,59952
511.642,-705.058,59963
511.58,-707.441,60004
511.518,-709.824,60026
511.455,-712.208,60037
511.393,-714.593,60027
511.331,-716.978,59910
511.268,-719.364,59978
511.206,-721.75,60023
511.143,-724.137,60102
511.081,-726.525,60024
511.019,-728.913,60049
510.956,-731.301,60059
510.894,-733.691,59988
510.832,-736.08,59944
510.769,-738.471,59979
510.707,-740.862,60072
510.644,-743.253,60018
510.582,-745.646,60045
510.52,-748.038,59956
510.457,-750.432,60005
510.395,-752.826,59970
510.333,-755.22,60003
510.27,-757.615,60011
510.208,-760.011,59954
510.146,-762.407,59989
510.083,-764.804,59914
510.021,-767.201,60026
509.958,-769.599,59976
509.896,-771.998,60038
509.834,-774.397,59985
509.771,-776.797,60062
509.709,-779.197,60051
509.647,-781.598,60014
509.584,-784,59996
509.522,-786.402,60025
509.459,-788.805,60028
509.397,-791.208,60114
509.335,-793.612,60033
509.272,-796.016,60088
509.21,-798.421,59980
509.148,-800.827,60041
509.085,-803.233,60016
509.023,-805.64,59916
508.96,-808.048,59990
508.898,-810.456,60036
508.836,-812.864,59948
508.773,-815.274,59955
508.711,-817.683,59992
525.364,-194.586,59768
525.301,-196.846,60071
525.239,-199.106,59937
525.177,-201.367,60021
525.114,-203.629,60007
525.052,-205.891,59943
524.99,-208.154,60111
524.927,-210.417,59933
524.865,-212.681,60075
524.802,-214.945,59933
524.74,-217.21,59927
524.678,-219.475,59985
524.615,-221.741,60010
524.553,-224.008,60046
524.491,-226.275,59961
524.428,-228.542,59981
524.366,-230.81,60005
524.304,-233.079,60056
524.241,-235.348,60081
524.179,-237.618,59887
524.116,-239.888,60006
524.054,-242.159,60050
523.992,-244.43,60057
523.929,-246.702,59998
523.867,-248.974,60006
523.805,-251.247,60002
523.742,-253.52,60005
523.68,-255.794,60024
523.617,-258.069,59914
523.555,-260.344,60041
523.493,-262.62,60005
523.43,-264.896,59971
523.368,-267.173,60016
523.306,-269.45,60044
523.243,-271.728,60092
523.181,-274.006,60137
523.119,-276.285,60109
523.056,-278.564,60081
522.994,-280.844,60196
522.931,-283.125,60190
522.869,-285.406,60154
522.807,-287.688,60164
522.744,-289.97,60229
522.682,-292.252,60243
522.62,-294.536,60127
522.557,-296.82,60203
522.495,-299.104,60199
522.432,-301.389,60276
522.37,-303.674,60270
522.308,-305.96,60134
522.245,-308.247,60264
522.183,-310.534,60152
522.121,-312.821,60186
522.058,-315.11,60257
521.996,-317.398,60246
521.933,-319.687,60117
521.871,-321.977,60185
521.809,-324.268,60172
521.746,-326.559,60109
521.684,-328.85,60091
521.622,-331.142,60186
521.559,-333.434,60077
521.497,-335.728,60033
521.435,-338.021,60144
521.372,-340.315,60052
521.31,-342.61,60147
521.247,-344.905,60048
521.185,-347.201,60107
521.123,-349.498,60117
521.06,-351.795,60081
520.998,-354.092,59997
520.936,-356.39,60135
520.873,-358.689,59986
520.811,-360.988,60049
520.748,-363.287,60106
520.686,-365.588,60079
520.624,-367.889,60090
520.561,-370.19,60115
520.499,-372.492,60021
520.437,-374.794,60049
520.374,-377.097,60057
520.312,-379.401,60053
520.249,-381.705,60124
520.187,-384.009,60130
520.125,-386.315,60080
520.062,-388.62,60017
520.0,-390.927,60035
519.938,-393.234,60035
519.875,-395.541,60037
519.813,-397.849,60090
519.751,-400.158,60014
519.688,-402.467,59931
519.626,-404.776,59988
519.563,-407.086,60093
519.501,-409.397,59995
519.439,-411.708,60130
519.376,-414.02,60043
519.314,-416.333,60052
519.252,-418.646,60078
519.189,-420.959,60009
519.127,-423.273,60064
519.064,-425.588,59998
519.002,-427.903,60099
518.94,-430.219,60094
518.877,-432.535,60015
518.815,-434.852,60055
518.753,-437.169,60066
518.69,-439.487,60096
518.628,-441.806,60092
518.565,-444.125,60112
518.503,-446.445,60071
518.441,-448.765,60045
518.378,-451.086,60016
518.316,-453.407,60032
518.254,-455.729,60041
518.191,-458.051,60009
518.129,-460.374,59899
518.067,-462.698,60053
518.004,-465.022,60038
517.942,-467.347,60062
517.879,-469.672,60005
517.817,-471.998,60055
517.755,-474.324,59990
517.692,-476.651,60120
517.63,-478.978,60006
517.568,-481.306,60022
517.505,-483.635,60038
517.443,-485.964,60043
517.38,-488.294,60033
517.318,-490.624,60019
517.256,-492.955,60086
517.193,-495.286,59946
517.131,-497.618,60066
517.069,-499.951,60022
517.006,-502.284,60056
516.944,-504.618,60184
516.881,-506.952,60137
516.819,-509.287,60271
516.757,-511.622,60426
516.694,-513.958,60903
516.632,-516.294,62660
516.57,-518.631,65983
516.507,-520.969,66337
516.445,-523.307,63707
516.383,-525.646,61655
516.32,-527.985,60616
516.258,-530.325,60312
516.195,-532.665,60206
516.133,-535.006,60154
516.071,-537.348,60151
516.008,-539.69,60138
515.946,-542.033,60129
515.884,-544.376,60167
515.821,-546.72,60018
515.759,-549.064,60049
515.696,-551.409,59970
515.634,-553.755,60124
515.572,-556.101,60006
515.509,-558.448,59979
515.447,-560.795,60041
515.385,-563.143,60044
515.322,-565.491,59985
515.26,-567.84,60028
515.198,-570.189,59972
515.135,-572.539,60013
515.073,-574.89,60024
515.01,-577.241,59954
514.948,-579.593,59977
514.886,-581.945,60007
514.823,-584.298,60106
514.761,-586.652,59973
514.699,-589.006,59934
514.636,-591.361,59990
514.574,-593.716,60032
514.511,-596.072,60021
514.449,-598.428,60059
514.387,-600.785,60011
514.324,-603.142,60057
514.262,-605.5,60059
514.2,-607.859,60031
514.137,-610.218,60041
514.075,-612.578,59942
514.012,-614.938,59981
513.95,-617.299,60081
513.888,-619.661,60089
513.825,-622.023,60098
513.763,-624.385,60004
513.701,-626.749,60017
513.638,-629.112,60008
513.576,-631.477,59946
513.514,-633.842,59974
513.451,-636.207,60073
513.389,-638.573,60063
513.326,-640.94,60031
513.264,-643.307,60042
513.202,-645.675,59920
513.139,-648.043,60037
513.077,-650.412,60040
513.015,-652.782,59974
512.952,-655.152,60002
512.89,-657.523,60033
512.827,-659.894,59953
512.765,-662.266,59983
512.703,-664.638,59997
512.64,-667.011,60043
512.578,-669.385,59958
512.516,-671.759,60056
512.453,-674.134,59996
512.391,-676.509,60004
512.328,-678.885,59998
512.266,-681.261,60008
512.204,-683.638,59954
512.141,-686.016,60028
512.079,-688.394,60021
512.017,-690.773,60024
511.954,-693.152,59987
511.892,-695.532,60055
511.83,-697.913,59984
511.767,-700.294,60057
511.705,-702.676,59992
511.642,-705.058,60015
511.58,-707.441,59923
511.518,-709.824,59837
511.455,-712.208,59988
511.393,-714.593,60045
511.331,-716.978,59981
511.268,-719.364,59982
511.206,-721.75,59923
511.143,-724.137,59999
511.081,-726.525,59975
511.019,-728.913,59927
510.956,-731.301,60011
510.894,-733.691,59927
510.832,-736.08,60006
510.769,-738.471,60012
510.707,-740.862,60008
510.644,-743.253,59918
510.582,-745.646,60013
510.52,-748.038,59938
510.457,-750.432,59925
510.395,-752.826,59905
510.333,-755.22,59956
510.27,-757.615,60009
510.208,-760.011,59962
510.146,-762.407,60022
510.083,-764.804,59922
510.021,-767.201,60015
509.958,-769.599,59995
509.896,-771.998,59962
509.834,-774.397,59961
509.771,-776.797,59966
509.709,-779.197,60015
509.647,-781.598,60002
509.584,-784,59995
509.522,-786.402,60070
509.459,-788.805,59958
509.397,-791.208,59996
509.335,-793.612,59972
509.272,-796.016,60005
509.21,-798.421,60053
509.148,-800.827,59948
509.085,-803.233,59986
509.023,-805.64,59948
508.96,-808.048,60054
508.898,-810.456,60008
508.836,-812.864,60034
508.773,-815.274,59980
508.711,-817.683,59984
525.364,-194.586,59791
525.301,-196.846,60001
525.239,-199.106,59954
525.177,-201.367,59956
525.114,-203.629,60044
525.052,-205.891,59964
524.99,-208.154,60070
524.927,-210.417,60016
524.865,-212.681,59966
524.802,-214.945,59933
524.74,-217.21,59987
524.678,-219.475,60027
524.615,-221.741,60031
524.553,-224.008,60002
524.491,-226.275,60009
524.428,-228.542,59985
524.366,-230.81,59996
524.304,-233.079,60005
524.241,-235.348,59963
524.179,-237.618,60008
524.116,-239.888,59881
524.054,-242.159,59946
523.992,-244.43,59995
523.929,-246.702,60013
523.867,-248.974,59963
523.805,-251.247,59958
523.742,-253.52,59946
523.68,-255.794,59990
523.617,-258.069,60080
523.555,-260.344,60030
523.493,-262.62,60025
523.43,-264.896,60064
523.368,-267.173,59996
523.306,-269.45,60080
523.243,-271.728,60054
523.181,-274.006,60075
523.119,-276.285,60151
523.056,-278.564,60122
522.994,-280.844,60128
522.931,-283.125,60114
522.869,-285.406,60142
522.807,-287.688,60175
522.744,-289.97,60300
522.682,-292.252,60147
522.62,-294.536,60220
522.557,-296.82,60318
522.495,-299.104,60161
522.432,-301.389,60240
522.37,-303.674,60272
522.308,-305.96,60316
522.245,-308.247,60147
522.183,-310.534,60198
522.121,-312.821,60236
522.058,-315.11,60178
521.996,-317.398,60238
521.933,-319.687,60176
521.871,-321.977,60228
521.809,-324.268,60259
521.746,-326.559,60076
521.684,-328.85,60092
521.622,-331.142,60178
521.559,-333.434,60119
521.497,-335.728,60163
521.435,-338.021,60107
521.372,-340.315,60120
521.31,-342.61,60061
521.247,-344.905,60141
521.185,-347.201,60073
521.123,-349.498,60087
521.06,-351.795,60146
520.998,-354.092,60052
520.936,-356.39,60182
520.873,-358.689,59985
520.811,-360.988,60158
520.748,-363.287,60074
520.686,-365.588,60102
520.624,-367.889,60073
520.561,-370.19,60098
520.499,-372.492,60066
520.437,-374.794,60077
520.374,-377.097,60140
520.312,-379.401,60031
520.249,-381.705,60072
520.187,-384.009,60019
520.125,-386.315,60347
520.062,-388.62,60035
520.0,-390.927,60093
519.938,-393.234,59998
519.875,-395.541,60050
519.813,-397.849,60115
519.751,-400.158,60045
519.688,-402.467,60153
519.626,-404.776,60125
519.563,-407.086,59964
519.501,-409.397,60073
519.439,-411.708,60011
519.376,-414.02,60034
519.314,-416.333,60128
519.252,-418.646,60051
519.189,-420.959,60093
519.127,-423.273,60111
519.064,-425.588,60101
519.002,-427.903,60114
518.94,-430.219,60080
518.877,-432.535,60098
518.815,-434.852,60078
518.753,-437.169,60111
518.69,-439.487,60054
518.628,-441.806,60060
518.565,-444.125,60060
518.503,-446.445,60013
518.441,-448.765,60015
518.378,-451.086,59983
518.316,-453.407,59969
518.254,-455.729,59992
518.191,-458.051,59980
518.129,-460.374,60053
518.067,-462.698,60074
518.004,-465.022,60076
517.942,-467.347,60028
517.879,-469.672,59997
517.817,-471.998,59987
517.755,-474.324,60035
517.692,-476.651,60078
517.63,-478.978,59958
517.568,-481.306,60037
517.505,-483.635,60056
517.443,-485.964,60090
517.38,-488.294,60057
517.318,-490.624,60061
517.256,-492.955,60084
517.193,-495.286,60064
517.131,-497.618,60071
517.069,-499.951,60016
517.006,-502.284,60145
516.944,-504.618,60240
516.881,-506.952,60142
516.819,-509.287,60232
516.757,-511.622,60454
516.694,-513.958,60846
516.632,-516.294,62640
516.57,-518.631,66016
516.507,-520.969,66404
516.445,-523.307,63554
516.383,-525.646,61797
516.32,-527.985,60716
516.258,-530.325,60409
516.195,-532.665,60227
516.133,-535.006,60169
516.071,-537.348,60051
516.008,-539.69,60167
515.946,-542.033,60089
515.884,-544.376,60062
515.821,-546.72,60049
515.759,-549.064,60111
515.696,-551.409,60063
515.634,-553.755,60033
515.572,-556.101,59935
515.509,-558.448,59988
515.447,-560.795,59979
515.385,-563.143,59976
515.322,-565.491,60038
515.26,-567.84,59969
515.198,-570.189,60082
515.135,-572.539,59962
515.073,-574.89,59967
515.01,-577.241,59990
514.948,-579.593,59949
514.886,-581.945,59991
514.823,-584.298,59998
514.761,-586.652,59927
514.699,-589.006,59974
514.636,-591.361,60078
514.574,-593.716,60031
514.511,-596.072,59968
514.449,-598.428,60001
514.387,-600.785,59967
514.324,-603.142,60107
514.262,-605.5,60031
514.2,-607.859,60077
514.137,-610.218,60032
514.075,-612.578,60073
514.012,-614.938,60035
513.95,-617.299,60019
513.888,-619.661,59997
513.825,-622.023,59984
513.763,-624.385,60014
513.701,-626.749,60024
513.638,-629.112,60013
513.576,-631.477,60034
513.514,-633.842,59931
513.451,-636.207,60016
513.389,-638.573,60000
513.326,-640.94,60047
513.264,-643.307,59980
513.202,-645.675,60017
513.139,-648.043,60064
513.077,-650.412,59977
513.015,-652.782,60021
512.952,-655.152,60126
512.89,-657.523,60041
512.827,-659.894,60069
512.765,-662.266,59994
512.703,-664.638,60046
512.64,-667.011,60050
512.578,-669.385,60095
512.516,-671.759,59967
512.453,-674.134,59988
512.391,-676.509,59973
512.328,-678.885,60033
512.266,-681.261,60044
512.204,-683.638,60044
512.141,-686.016,59960
512.079,-688.394,59935
512.017,-690.773,59988
511.954,-693.152,59937
511.892,-695.532,59984
511.83,-697.913,60091
511.767,-700.294,59991
511.705,-702.676,60039
511.642,-705.058,60012
511.58,-707.441,60009
511.518,-709.824,60012
511.455,-712.208,60022
511.393,-714.593,59980
511.331,-716.978,60031
511.268,-719.364,60065
511.206,-721.75,59962
511.143,-724.137,59989
511.081,-726.525,60058
511.019,-728.913,59966
510.956,-731.301,60108
510.894,-733.691,60032
510.832,-736.08,60051
510.769,-738.471,59977
510.707,-740.862,59969
510.644,-743.253,59965
510.582,-745.646,60012
510.52,-748.038,60082
510.457,-750.432,60061
510.395,-752.826,59930
510.333,-755.22,60022
510.27,-757.615,59962
510.208,-760.011,59960
510.146,-762.407,59973
510.083,-764.804,59964
510.021,-767.201,60010
509.958,-769.599,59989
509.896,-771.998,60016
509.834,-774.397,60071
509.771,-776.797,60008
509.709,-779.197,60019
509.647,-781.598,59994
509.584,-784,59962
509.522,-786.402,59959
509.459,-788.805,60040
509.397,-791.208,60050
509.335,-793.612,60010
509.272,-796.016,59996
509.21,-798.421,59987
509.148,-800.827,59975
509.085,-803.233,59997
509.023,-805.64,59946
508.96,-808.048,59948
508.898,-810.456,60057
508.836,-812.864,60049
508.773,-815.274,59987
508.711,-817.683,60048
525.364,-194.586,59749
525.301,-196.846,60087
525.239,-199.106,59961
525.177,-201.367,60005
525.114,-203.629,60019
525.052,-205.891,60005
524.99,-208.154,59965
524.927,-210.417,60011
524.865,-212.681,59978
524.802,-214.945,59950
524.74,-217.21,60048
524.678,-219.475,60003
524.615,-221.741,59920
524.553,-224.008,60021
524.491,-226.275,59990
524.428,-228.542,59978
524.366,-230.81,60014
524.304,-233.079,60093
524.241,-235.348,60082
524.179,-237.618,59939
524.116,-239.888,59962
524.054,-242.159,60033
523.992,-244.43,59997
523.929,-246.702,60028
523.867,-248.974,60013
523.805,-251.247,60033
523.742,-253.52,59986
523.68,-255.794,60000
523.617,-258.069,59987
523.555,-260.344,60137
523.493,-262.62,60008
523.43,-264.896,60030
523.368,-267.173,59997
523.306,-269.45,60016
523.243,-271.728,60062
523.181,-274.006,60116
523.119,-276.285,60133
523.056,-278.564,60100
522.994,-280.844,60249
522.931,-283.125,60194
522.869,-285.406,60198
522.807,-287.688,60145
522.744,-289.97,60206
522.682,-292.252,60202
522.62,-294.536,60282
522.557,-296.82,60233
522.495,-299.104,60212
522.432,-301.389,60192
522.37,-303.674,60278
522.308,-305.96,60207
522.245,-308.247,60212
522.183,-310.534,60212
522.121,-312.821,60181
522.058,-315.11,60203
521.996,-317.398,60100
521.933,-319.687,60116
521.871,-321.977,60180
521.809,-324.268,60114
521.746,-326.559,60206
521.684,-328.85,60173
521.622,-331.142,60190
521.559,-333.434,60159
521.497,-335.728,60169
521.435,-338.021,60084
521.372,-340.315,60008
521.31,-342.61,60105
521.247,-344.905,60122
521.185,-347.201,60041
521.123,-349.498,60037
521.06,-351.795,60111
520.998,-354.092,60140
520.936,-356.39,60138
520.873,-358.689,60128
520.811,-360.988,60167
520.748,-363.287,60088
520.686,-365.588,60056
520.624,-367.889,60048
520.561,-370.19,60055
520.499,-372.492,60018
520.437,-374.794,60029
520.374,-377.097,60028
520.312,-379.401,60080
520.249,-381.705,60027
520.187,-384.009,60048
520.125,-386.315,60098
520.062,-388.62,60106
520.0,-390.927,60104
519.938,-393.234,60131
519.875,-395.541,60066
519.813,-397.849,60060
519.751,-400.158,60069
519.688,-402.467,60059
519.626,-404.776,60150
519.563,-407.086,60011
519.501,-409.397,60079
519.439,-411.708,60033
519.376,-414.02,60024
519.314,-416.333,60033
519.252,-418.646,60015
519.189,-420.959,60019
519.127,-423.273,60047
519.064,-425.588,60076
519.002,-427.903,60002
518.94,-430.219,60053
518.877,-432.535,60135
518.815,-434.852,60109
518.753,-437.169,60140
518.69,-439.487,60094
518.628,-441.806,60060
518.565,-444.125,60132
518.503,-446.445,60049
518.441,-448.765,60095
518.378,-451.086,60016
518.316,-453.407,60032
518.254,-455.729,59935
518.191,-458.051,60021
518.129,-460.374,60053
518.067,-462.698,60110
518.004,-465.022,59961
517.942,-467.347,59995
517.879,-469.672,60053
517.817,-471.998,60046
517.755,-474.324,60121
517.692,-476.651,60005
517.63,-478.978,59976
517.568,-481.306,60007
517.505,-483.635,60001
517.443,-485.964,60052
517.38,-488.294,60076
517.318,-490.624,60097
517.256,-492.955,60073
517.193,-495.286,60050
517.131,-497.618,60096
517.069,-499.951,60128
517.006,-502.284,59984
516.944,-504.618,60127
516.881,-506.952,60175
516.819,-509.287,60180
516.757,-511.622,60390
516.694,-513.958,60794
516.632,-516.294,62685
516.57,-518.631,65734
516.507,-520.969,66310
516.445,-523.307,63610
516.383,-525.646,61558
516.32,-527.985,60656
516.258,-530.325,60409
516.195,-532.665,60220
516.133,-535.006,60203
516.071,-537.348,60129
516.008,-539.69,60141
515.946,-542.033,60064
515.884,-544.376,60109
515.821,-546.72,60016
515.759,-549.064,60003
515.696,-551.409,60112
515.634,-553.755,60076
515.572,-556.101,60094
515.509,-558.448,59975
515.447,-560.795,60048
515.385,-563.143,59962
515.322,-565.491,60008
515.26,-567.84,59986
515.198,-570.189,60002
515.135,-572.539,60035
515.073,-574.89,60006
515.01,-577.241,60100
514.948,-579.593,59956
514.886,-581.945,59988
514.823,-584.298,59990
514.761,-586.652,60023
514.699,-589.006,60151
514.636,-591.361,60065
514.574,-593.716,60039
514.511,-596.072,59952
514.449,-598.428,60025
514.387,-600.785,59968
514.324,-603.142,59908
514.262,-605.5,60032
514.2,-607.859,59984
514.137,-610.218,59941
514.075,-612.578,60010
514.012,-614.938,60076
513.95,-617.299,60032
513.888,-619.661,60037
513.825,-622.023,60074
513.763,-624.385,59972
513.701,-626.749,59994
513.638,-629.112,59993
513.576,-631.477,60082
513.514,-633.842,60072
513.451,-636.207,60104
513.389,-638.573,60057
513.326,-640.94,59948
513.264,-643.307,59997
513.202,-645.675,60025
513.139,-648.043,60017
513.077,-650.412,59974
513.015,-652.782,59943
512.952,-655.152,60002
512.89,-657.523,59977
512.827,-659.894,60055
512.765,-662.266,60019
512.703,-664.638,59979
512.64,-667.011,60088
512.578,-669.385,60075
512.516,-671.759,60006
512.453,-674.134,60012
512.391,-676.509,60010
512.328,-678.885,59944
512.266,-681.261,59980
512.204,-683.638,59999
512.141,-686.016,60030
512.079,-688.394,59971
512.017,-690.773,60024
511.954,-693.152,59962
511.892,-695.532,60063
511.83,-697.913,59941
511.767,-700.294,60062
511.705,-702.676,60031
511.642,-705.058,59978
511.58,-707.441,60077
511.518,-709.824,60004
511.455,-712.208,59897
511.393,-714.593,59966
511.331,-716.978,59954
511.268,-719.364,60039
511.206,-721.75,59947
511.143,-724.137,60015
511.081,-726.525,60035
511.019,-728.913,59972
510.956,-731.301,59932
510.894,-733.691,60019
510.832,-736.08,59987
510.769,-738.471,59948
510.707,-740.862,59984
510.644,-743.253,60062
510.582,-745.646,60027
510.52,-748.038,59974
510.457,-750.432,59953
510.395,-752.826,59986
510.333,-755.22,60124
510.27,-757.615,60025
510.208,-760.011,59938
510.146,-762.407,60072
510.083,-764.804,59970
510.021,-767.201,60011
509.958,-769.599,60015
509.896,-771.998,59872
509.834,-774.397,59987
509.771,-776.797,60003
509.709,-779.197,60031
509.647,-781.598,59966
509.584,-784,59994
509.522,-786.402,60001
509.459,-788.805,59973
509.397,-791.208,60082
509.335,-793.612,60013
509.272,-796.016,60063
509.21,-798.421,60023
509.148,-800.827,60037
509.085,-803.233,60004
509.023,-805.64,59950
508.96,-808.048,60025
508.898,-810.456,60038
508.836,-812.864,59981
508.773,-815.274,60003
508.711,-817.683,60003
525.364,-194.586,59744
525.301,-196.846,60078
525.239,-199.106,59993
525.177,-201.367,59959
525.114,-203.629,59983
525.052,-205.891,59957
524.99,-208.154,60025
524.927,-210.417,60002
524.865,-212.681,59953
524.802,-214.945,60050
524.74,-217.21,60068
524.678,-219.475,60016
524.615,-221.741,60003
524.553,-224.008,60037
524.491,-226.275,59923
524.428,-228.542,60007
524.366,-230.81,60009
524.304,-233.079,60028
524.241,-235.348,60013
524.179,-237.618,59946
524.116,-239.888,60105
524.054,-242.159,60004
523.992,-244.43,60017
523.929,-246.702,59991
523.867,-248.974,60003
523.805,-251.247,59978
523.742,-253.52,59935
523.68,-255.794,59978
523.617,-258.069,59987
523.555,-260.344,60041
523.493,-262.62,59981
523.43,-264.896,59974
523.368,-267.173,60034
523.306,-269.45,60072
523.243,-271.728,60063
523.181,-274.006,60190
523.119,-276.285,60146
523.056,-278.564,60208
522.994,-280.844,60189
522.931,-283.125,60076
522.869,-285.406,60132
522.807,-287.688,60160
522.744,-289.97,60153
522.682,-292.252,60167
522.62,-294.536,60252
522.557,-296.82,60320
522.495,-299.104,60191
522.432,-301.389,60274
522.37,-303.674,60214
522.308,-305.96,60186
522.245,-308.247,60214
522.183,-310.534,60147
522.121,-312.821,60202
522.058,-315.11,60197
521.996,-317.398,60170
521.933,-319.687,60201
521.871,-321.977,60154
521.809,-324.268,60199
521.746,-326.559,60206
521.684,-328.85,60142
521.622,-331.142,60103
521.559,-333.434,60167
521.497,-335.728,60067
521.435,-338.021,60185
521.372,-340.315,60106
521.31,-342.61,60098
521.247,-344.905,60131
521.185,-347.201,60196
521.123,-349.498,60058
521.06,-351.795,60091
520.998,-354.092,60059
520.936,-356.39,60039
520.873,-358.689,60154
520.811,-360.988,60134
520.748,-363.287,60058
520.686,-365.588,60123
520.624,-367.889,60061
520.561,-370.19,60110
520.499,-372.492,60139
520.437,-374.794,60115
520.374,-377.097,60088
520.312,-379.401,60142
520.249,-381.705,60039
520.187,-384.009,60123
520.125,-386.315,60134
520.062,-388.62,60101
520.0,-390.927,60155
519.938,-393.234,59990
519.875,-395.541,60079
519.813,-397.849,60091
519.751,-400.158,60082
519.688,-402.467,60107
519.626,-404.776,60036
519.563,-407.086,60070
519.501,-409.397,60041
519.439,-411.708,60042
519.376,-414.02,60056
519.314,-416.333,60049
519.252,-418.646,60033
519.189,-420.959,59999
519.127,-423.273,59999
519.064,-425.588,60049
519.002,-427.903,60025
518.94,-430.219,60086
518.877,-432.535,60084
518.815,-434.852,60022
518.753,-437.169,60100
518.69,-439.487,59929
518.628,-441.806,59949
518.565,-444.125,60035
518.503,-446.445,60039
518.441,-448.765,60103
518.378,-451.086,60065
518.316,-453.407,60154
518.254,-455.729,60111
518.191,-458.051,60049
518.129,-460.374,59976
518.067,-462.698,60021
518.004,-465.022,60041
517.942,-467.347,60074
517.879,-469.672,60031
517.817,-471.998,60069
517.755,-474.324,59989
517.692,-476.651,60100
517.63,-478.978,59994
517.568,-481.306,60018
517.505,-483.635,60112
517.443,-485.964,60052
517.38,-488.294,60101
517.318,-490.624,60154
517.256,-492.955,60020
517.193,-495.286,60090
517.131,-497.618,60103
517.069,-499.951,60080
517.006,-502.284,60112
516.944,-504.618,60083
516.881,-506.952,60270
516.819,-509.287,60219
516.757,-511.622,60414
516.694,-513.958,60831
516.632,-516.294,62700
516.57,-518.631,66015
516.507,-520.969,66377
516.445,-523.307,63754
516.383,-525.646,61794
516.32,-527.985,60653
516.258,-530.325,60326
516.195,-532.665,60209
516.133,-535.006,60162
516.071,-537.348,60041
516.008,-539.69,60055
515.946,-542.033,60063
515.884,-544.376,60128
515.821,-546.72,60046
515.759,-549.064,60044
515.696,-551.409,60087
515.634,-553.755,60098
515.572,-556.101,60082
515.509,-558.448,60062
515.447,-560.795,60113
515.385,-563.143,59992
515.322,-565.491,60042
515.26,-567.84,59990
515.198,-570.189,59948
515.135,-572.539,60046
515.073,-574.89,59984
515.01,-577.241,60009
514.948,-579.593,60031
514.886,-581.945,60024
514.823,-584.298,59976
514.761,-586.652,59964
514.699,-589.006,60015
514.636,-591.361,60017
514.574,-593.716,60064
514.511,-596.072,60015
514.449,-598.428,60011
514.387,-600.785,60040
514.324,-603.142,60076
514.262,-605.5,59990
514.2,-607.859,59940
514.137,-610.218,59968
514.075,-612.578,60012
514.012,-614.938,60008
513.95,-617.299,60000
513.888,-619.661,60096
513.825,-622.023,60045
513.763,-624.385,60013
513.701,-626.749,59967
513.638,-629.112,60036
513.576,-631.477,60087
513.514,-633.842,59991
513.451,-636.207,60001
513.389,-638.573,60048
513.326,-640.94,60000
513.264,-643.307,60014
513.202,-645.675,60025
513.139,-648.043,60060
513.077,-650.412,60008
513.015,-652.782,60081
512.952,-655.152,59965
512.89,-657.523,59989
512.827,-659.894,60012
512.765,-662.266,59981
512.703,-664.638,60035
512.64,-667.011,60099
512.578,-669.385,60016
512.516,-671.759,60047
512.453,-674.134,60024
512.391,-676.509,60088
512.328,-678.885,59943
512.266,-681.261,59964
512.204,-683.638,60053
512.141,-686.016,60009
512.079,-688.394,59980
512.017,-690.773,60030
511.954,-693.152,60029
511.892,-695.532,59996
511.83,-697.913,59959
511.767,-700.294,59977
511.705,-702.676,60001
511.642,-705.058,60117
511.58,-707.441,60039
511.518,-709.824,60007
511.455,-712.208,60051
511.393,-714.593,59946
511.331,-716.978,59986
511.268,-719.364,59949
511.206,-721.75,59954
511.143,-724.137,60006
511.081,-726.525,60009
511.019,-728.913,60022
510.956,-731.301,60012
510.894,-733.691,59989
510.832,-736.08,60043
510.769,-738.471,59992
510.707,-740.862,59974
510.644,-743.253,59969
510.582,-745.646,60018
510.52,-748.038,59966
510.457,-750.432,59977
510.395,-752.826,59951
510.333,-755.22,60099
510.27,-757.615,60010
510.208,-760.011,59993
510.146,-762.407,59963
510.083,-764.804,59985
510.021,-767.201,59935
509.958,-769.599,60074
509.896,-771.998,59945
509.834,-774.397,59964
509.771,-776.797,60022
509.709,-779.197,60000
509.647,-781.598,60033
509.584,-784,59970
509.522,-786.402,59980
509.459,-788.805,60007
509.397,-791.208,60003
509.335,-793.612,59979
509.272,-796.016,59927
509.21,-798.421,60016
509.148,-800.827,60017
509.085,-803.233,59998
509.023,-805.64,60027
508.96,-808.048,60022
508.898,-810.456,59892
508.836,-812.864,59990
508.773,-815.274,59934
508.711,-817.683,59978
508.661,-819.612,60050