File: tomke/20240809/raw_data/Si_onTiO2_40mA_30mW_30sec_5acc_517nm_bg.txt
Wavelength(nm), Raman shift(cm^-1), Intensity(counts)
525.364,-194.586,62250
525.301,-196.846,62684
525.239,-199.106,62583
525.177,-201.367,62635
525.114,-203.629,62698
525.052,-205.891,62713
524.99,-208.154,62608
524.927,-210.417,62669
524.865,-212.681,62635
524.802,-214.945,62674
524.74,-217.21,62615
524.678,-219.475,62702
524.615,-221.741,62623
524.553,-224.008,62582
524.491,-226.275,62757
524.428,-228.542,62740
524.366,-230.81,62872
524.304,-233.079,62791
524.241,-235.348,62706
524.179,-237.618,62652
524.116,-239.888,62835
524.054,-242.159,62804
523.992,-244.43,62692
523.929,-246.702,62768
523.867,-248.974,62773
523.805,-251.247,62753
523.742,-253.52,62926
523.68,-255.794,62933
523.617,-258.069,62905
523.555,-260.344,63027
523.493,-262.62,63145
523.43,-264.896,63361
523.368,-267.173,63610
523.306,-269.45,63843
523.243,-271.728,64356
523.181,-274.006,64511
523.119,-276.285,65166
523.056,-278.564,65231
522.994,-280.844,65964
522.931,-283.125,65849
522.869,-285.406,66269
522.807,-287.688,66389
522.744,-289.97,66354
522.682,-292.252,66512
522.62,-294.536,66668
522.557,-296.82,66707
522.495,-299.104,66591
522.432,-301.389,66473
522.37,-303.674,66665
522.308,-305.96,66573
522.245,-308.247,66524
522.183,-310.534,66646
522.121,-312.821,66641
522.058,-315.11,66366
521.996,-317.398,66334
521.933,-319.687,66478
521.871,-321.977,66403
521.809,-324.268,66389
521.746,-326.559,66296
521.684,-328.85,66422
521.622,-331.142,66424
521.559,-333.434,66206
521.497,-335.728,66203
521.435,-338.021,66393
521.372,-340.315,66234
521.31,-342.61,66048
521.247,-344.905,66158
521.185,-347.201,66237
521.123,-349.498,66033
521.06,-351.795,65942
520.998,-354.092,66028
520.936,-356.39,65943
520.873,-358.689,65860
520.811,-360.988,65848
520.748,-363.287,65944
520.686,-365.588,65794
520.624,-367.889,65733
520.561,-370.19,65714
520.499,-372.492,65679
520.437,-374.794,65771
520.374,-377.097,65610
520.312,-379.401,65940
520.249,-381.705,65520
520.187,-384.009,65366
520.125,-386.315,65402
520.062,-388.62,65536
520.0,-390.927,65443
519.938,-393.234,65496
519.875,-395.541,65433
519.813,-397.849,65512
519.751,-400.158,65282
519.688,-402.467,65487
519.626,-404.776,65204
519.563,-407.086,65263
519.501,-409.397,65170
519.439,-411.708,65233
519.376,-414.02,65070
519.314,-416.333,65159
519.252,-418.646,65019
519.189,-420.959,64922
519.127,-423.273,64982
519.064,-425.588,64997
519.002,-427.903,64786
518.94,-430.219,64877
518.877,-432.535,64855
518.815,-434.852,64814
518.753,-437.169,64572
518.69,-439.487,64647
518.628,-441.806,64858
518.565,-444.125,64501
518.503,-446.445,64612
518.441,-448.765,64610
518.378,-451.086,64479
518.316,-453.407,64604
518.254,-455.729,64434
518.191,-458.051,64385
518.129,-460.374,64294
518.067,-462.698,64318
518.004,-465.022,64475
517.942,-467.347,64272
517.879,-469.672,64380
517.817,-471.998,64232
517.755,-474.324,64340
517.692,-476.651,64163
517.63,-478.978,64313
517.568,-481.306,64230
517.505,-483.635,64086
517.443,-485.964,63989
517.38,-488.294,64010
517.318,-490.624,64042
517.256,-492.955,63988
517.193,-495.286,63944
517.131,-497.618,64081
517.069,-499.951,63974
517.006,-502.284,64050
516.944,-504.618,64093
516.881,-506.952,64066
516.819,-509.287,64100
516.757,-511.622,63925
516.694,-513.958,64050
516.632,-516.294,63851
516.57,-518.631,63903
516.507,-520.969,64041
516.445,-523.307,63919
516.383,-525.646,63857
516.32,-527.985,63976
516.258,-530.325,63841
516.195,-532.665,63907
516.133,-535.006,63797
516.071,-537.348,63981
516.008,-539.69,63816
515.946,-542.033,63927
515.884,-544.376,63927
515.821,-546.72,63990
515.759,-549.064,63818
515.696,-551.409,63827
515.634,-553.755,63818
515.572,-556.101,63959
515.509,-558.448,63843
515.447,-560.795,63889
515.385,-563.143,63740
515.322,-565.491,63549
515.26,-567.84,63836
515.198,-570.189,63779
515.135,-572.539,63638
515.073,-574.89,63834
515.01,-577.241,63585
514.948,-579.593,63597
514.886,-581.945,63777
514.823,-584.298,63611
514.761,-586.652,63647
514.699,-589.006,63583
514.636,-591.361,63676
514.574,-593.716,63848
514.511,-596.072,63716
514.449,-598.428,63663
514.387,-600.785,63638
514.324,-603.142,63596
514.262,-605.5,63824
514.2,-607.859,63560
514.137,-610.218,63549
514.075,-612.578,63502
514.012,-614.938,63499
513.95,-617.299,63631
513.888,-619.661,63564
513.825,-622.023,63337
513.763,-624.385,63523
513.701,-626.749,63590
513.638,-629.112,63478
513.576,-631.477,63393
513.514,-633.842,63396
513.451,-636.207,63312
513.389,-638.573,63297
513.326,-640.94,63487
513.264,-643.307,63418
513.202,-645.675,63448
513.139,-648.043,63460
513.077,-650.412,63359
513.015,-652.782,63394
512.952,-655.152,63421
512.89,-657.523,63531
512.827,-659.894,63313
512.765,-662.266,63432
512.703,-664.638,63266
512.64,-667.011,63213
512.578,-669.385,63249
512.516,-671.759,63237
512.453,-674.134,63154
512.391,-676.509,63196
512.328,-678.885,63283
512.266,-681.261,63239
512.204,-683.638,63163
512.141,-686.016,63095
512.079,-688.394,63138
512.017,-690.773,63333
511.954,-693.152,62990
511.892,-695.532,63111
511.83,-697.913,63036
511.767,-700.294,63207
511.705,-702.676,63077
511.642,-705.058,63121
511.58,-707.441,63027
511.518,-709.824,63070
511.455,-712.208,62931
511.393,-714.593,63077
511.331,-716.978,63235
511.268,-719.364,63157
511.206,-721.75,63004
511.143,-724.137,62984
511.081,-726.525,62880
511.019,-728.913,62995
510.956,-731.301,62952
510.894,-733.691,63053
510.832,-736.08,62913
510.769,-738.471,62712
510.707,-740.862,62810
510.644,-743.253,62888
510.582,-745.646,62712
510.52,-748.038,62887
510.457,-750.432,62842
510.395,-752.826,62725
510.333,-755.22,62958
510.27,-757.615,62752
510.208,-760.011,62738
510.146,-762.407,62697
510.083,-764.804,62775
510.021,-767.201,62638
509.958,-769.599,62755
509.896,-771.998,62812
509.834,-774.397,62809
509.771,-776.797,62773
509.709,-779.197,62656
509.647,-781.598,62781
509.584,-784,62723
509.522,-786.402,62775
509.459,-788.805,62621
509.397,-791.208,62499
509.335,-793.612,62555
509.272,-796.016,62683
509.21,-798.421,62603
509.148,-800.827,62609
509.085,-803.233,62419
509.023,-805.64,62708
508.96,-808.048,62700
508.898,-810.456,62565
508.836,-812.864,62545
508.773,-815.274,62545
508.711,-817.683,62591
525.364,-194.586,62296
525.301,-196.846,62737
525.239,-199.106,62626
525.177,-201.367,62508
525.114,-203.629,62822
525.052,-205.891,62787
524.99,-208.154,62730
524.927,-210.417,62615
524.865,-212.681,62682
524.802,-214.945,62738
524.74,-217.21,62763
524.678,-219.475,62744
524.615,-221.741,62641
524.553,-224.008,62816
524.491,-226.275,62770
524.428,-228.542,62554
524.366,-230.81,62846
524.304,-233.079,62810
524.241,-235.348,62702
524.179,-237.618,62720
524.116,-239.888,62810
524.054,-242.159,62941
523.992,-244.43,62818
523.929,-246.702,62920
523.867,-248.974,62776
523.805,-251.247,62831
523.742,-253.52,63036
523.68,-255.794,62840
523.617,-258.069,62946
523.555,-260.344,63235
523.493,-262.62,63274
523.43,-264.896,63470
523.368,-267.173,63653
523.306,-269.45,63954
523.243,-271.728,64327
523.181,-274.006,64846
523.119,-276.285,65063
523.056,-278.564,65628
522.994,-280.844,65869
522.931,-283.125,66052
522.869,-285.406,66305
522.807,-287.688,66507
522.744,-289.97,66662
522.682,-292.252,66866
522.62,-294.536,66746
522.557,-296.82,66897
522.495,-299.104,66681
522.432,-301.389,66899
522.37,-303.674,66603
522.308,-305.96,66969
522.245,-308.247,66612
522.183,-310.534,66663
522.121,-312.821,66750
522.058,-315.11,66788
521.996,-317.398,66635
521.933,-319.687,66542
521.871,-321.977,66361
521.809,-324.268,66383
521.746,-326.559,66492
521.684,-328.85,66547
521.622,-331.142,66422
521.559,-333.434,66528
521.497,-335.728,66254
521.435,-338.021,66396
521.372,-340.315,66360
521.31,-342.61,66289
521.247,-344.905,66437
521.185,-347.201,66154
521.123,-349.498,66268
521.06,-351.795,66221
520.998,-354.092,66082
520.936,-356.39,66028
520.873,-358.689,66060
520.811,-360.988,65982
520.748,-363.287,76105
520.686,-365.588,65918
520.624,-367.889,65990
520.561,-370.19,66070
520.499,-372.492,65906
520.437,-374.794,65751
520.374,-377.097,65684
520.312,-379.401,65813
520.249,-381.705,65704
520.187,-384.009,65756
520.125,-386.315,65707
520.062,-388.62,65752
520.0,-390.927,65570
519.938,-393.234,65482
519.875,-395.541,65781
519.813,-397.849,65653
519.751,-400.158,65458
519.688,-402.467,65487
519.626,-404.776,65428
519.563,-407.086,65293
519.501,-409.397,65231
519.439,-411.708,65371
519.376,-414.02,65209
519.314,-416.333,65122
519.252,-418.646,65224
519.189,-420.959,65182
519.127,-423.273,65124
519.064,-425.588,64991
519.002,-427.903,64950
518.94,-430.219,64879
518.877,-432.535,64865
518.815,-434.852,64798
518.753,-437.169,64841
518.69,-439.487,64711
518.628,-441.806,64697
518.565,-444.125,64677
518.503,-446.445,64955
518.441,-448.765,64833
518.378,-451.086,64600
518.316,-453.407,64574
518.254,-455.729,64511
518.191,-458.051,64562
518.129,-460.374,64496
518.067,-462.698,64425
518.004,-465.022,64508
517.942,-467.347,64469
517.879,-469.672,64421
517.817,-471.998,64209
517.755,-474.324,64193
517.692,-476.651,64227
517.63,-478.978,64186
517.568,-481.306,64149
517.505,-483.635,64049
517.443,-485.964,64255
517.38,-488.294,64303
517.318,-490.624,64299
517.256,-492.955,64302
517.193,-495.286,64035
517.131,-497.618,64063
517.069,-499.951,64247
517.006,-502.284,64076
516.944,-504.618,64121
516.881,-506.952,64211
516.819,-509.287,64160
516.757,-511.622,63958
516.694,-513.958,64147
516.632,-516.294,64116
516.57,-518.631,64227
516.507,-520.969,64078
516.445,-523.307,64006
516.383,-525.646,64157
516.32,-527.985,63990
516.258,-530.325,64081
516.195,-532.665,63942
516.133,-535.006,63971
516.071,-537.348,64099
516.008,-539.69,64034
515.946,-542.033,63988
515.884,-544.376,64057
515.821,-546.72,64048
515.759,-549.064,64050
515.696,-551.409,64113
515.634,-553.755,63944
515.572,-556.101,63849
515.509,-558.448,63999
515.447,-560.795,63795
515.385,-563.143,63993
515.322,-565.491,63883
515.26,-567.84,63855
515.198,-570.189,63945
515.135,-572.539,63850
515.073,-574.89,63833
515.01,-577.241,63856
514.948,-579.593,63954
514.886,-581.945,63828
514.823,-584.298,63666
514.761,-586.652,63798
514.699,-589.006,63692
514.636,-591.361,63799
514.574,-593.716,63857
514.511,-596.072,63742
514.449,-598.428,63907
514.387,-600.785,63758
514.324,-603.142,63726
514.262,-605.5,63750
514.2,-607.859,63724
514.137,-610.218,63712
514.075,-612.578,63750
514.012,-614.938,63684
513.95,-617.299,63502
513.888,-619.661,63539
513.825,-622.023,63547
513.763,-624.385,63750
513.701,-626.749,63701
513.638,-629.112,63516
513.576,-631.477,63526
513.514,-633.842,63464
513.451,-636.207,63613
513.389,-638.573,63507
513.326,-640.94,63422
513.264,-643.307,63585
513.202,-645.675,63592
513.139,-648.043,63514
513.077,-650.412,63521
513.015,-652.782,63422
512.952,-655.152,63531
512.89,-657.523,63340
512.827,-659.894,63413
512.765,-662.266,63433
512.703,-664.638,63500
512.64,-667.011,63282
512.578,-669.385,63334
512.516,-671.759,63448
512.453,-674.134,63338
512.391,-676.509,63343
512.328,-678.885,63290
512.266,-681.261,63365
512.204,-683.638,63319
512.141,-686.016,63370
512.079,-688.394,63281
512.017,-690.773,63183
511.954,-693.152,63311
511.892,-695.532,63281
511.83,-697.913,63122
511.767,-700.294,63066
511.705,-702.676,63187
511.642,-705.058,63187
511.58,-707.441,63053
511.518,-709.824,63086
511.455,-712.208,63186
511.393,-714.593,63108
511.331,-716.978,63040
511.268,-719.364,63221
511.206,-721.75,63028
511.143,-724.137,63168
511.081,-726.525,63123
511.019,-728.913,62982
510.956,-731.301,62869
510.894,-733.691,63035
510.832,-736.08,62986
510.769,-738.471,62974
510.707,-740.862,62974
510.644,-743.253,62963
510.582,-745.646,63014
510.52,-748.038,62984
510.457,-750.432,63044
510.395,-752.826,62748
510.333,-755.22,62901
510.27,-757.615,62803
510.208,-760.011,62902
510.146,-762.407,62867
510.083,-764.804,62856
510.021,-767.201,62833
509.958,-769.599,62874
509.896,-771.998,62821
509.834,-774.397,62783
509.771,-776.797,62815
509.709,-779.197,62835
509.647,-781.598,62829
509.584,-784,62834
509.522,-786.402,62727
509.459,-788.805,62802
509.397,-791.208,62733
509.335,-793.612,62690
509.272,-796.016,62737
509.21,-798.421,62720
509.148,-800.827,62655
509.085,-803.233,62513
509.023,-805.64,62712
508.96,-808.048,62640
508.898,-810.456,62542
508.836,-812.864,62521
508.773,-815.274,62601
508.711,-817.683,62577
525.364,-194.586,62328
525.301,-196.846,62509
525.239,-199.106,62679
525.177,-201.367,62769
525.114,-203.629,62706
525.052,-205.891,62776
524.99,-208.154,62634
524.927,-210.417,62730
524.865,-212.681,62644
524.802,-214.945,62771
524.74,-217.21,62781
524.678,-219.475,62718
524.615,-221.741,62905
524.553,-224.008,62896
524.491,-226.275,62839
524.428,-228.542,62879
524.366,-230.81,62677
524.304,-233.079,62935
524.241,-235.348,62791
524.179,-237.618,62812
524.116,-239.888,62902
524.054,-242.159,62869
523.992,-244.43,62892
523.929,-246.702,62972
523.867,-248.974,62842
523.805,-251.247,62802
523.742,-253.52,62910
523.68,-255.794,62947
523.617,-258.069,63056
523.555,-260.344,63179
523.493,-262.62,63205
523.43,-264.896,63326
523.368,-267.173,63675
523.306,-269.45,63853
523.243,-271.728,64257
523.181,-274.006,64583
523.119,-276.285,65205
523.056,-278.564,65530
522.994,-280.844,65874
522.931,-283.125,66261
522.869,-285.406,66351
522.807,-287.688,66533
522.744,-289.97,66558
522.682,-292.252,66709
522.62,-294.536,66623
522.557,-296.82,66843
522.495,-299.104,66682
522.432,-301.389,66649
522.37,-303.674,66824
522.308,-305.96,66643
522.245,-308.247,66768
522.183,-310.534,66872
522.121,-312.821,66784
522.058,-315.11,66566
521.996,-317.398,66603
521.933,-319.687,66435
521.871,-321.977,66557
521.809,-324.268,66494
521.746,-326.559,66334
521.684,-328.85,66484
521.622,-331.142,66400
521.559,-333.434,66318
521.497,-335.728,66372
521.435,-338.021,66309
521.372,-340.315,66351
521.31,-342.61,66223
521.247,-344.905,66398
521.185,-347.201,66165
521.123,-349.498,66076
521.06,-351.795,66201
520.998,-354.092,66090
520.936,-356.39,66040
520.873,-358.689,66121
520.811,-360.988,66018
520.748,-363.287,65924
520.686,-365.588,65996
520.624,-367.889,65921
520.561,-370.19,65923
520.499,-372.492,65727
520.437,-374.794,65808
520.374,-377.097,65978
520.312,-379.401,65783
520.249,-381.705,65819
520.187,-384.009,65720
520.125,-386.315,65615
520.062,-388.62,65403
520.0,-390.927,65650
519.938,-393.234,65543
519.875,-395.541,65453
519.813,-397.849,65477
519.751,-400.158,65534
519.688,-402.467,65398
519.626,-404.776,65392
519.563,-407.086,65359
519.501,-409.397,65431
519.439,-411.708,65251
519.376,-414.02,65256
519.314,-416.333,65212
519.252,-418.646,65173
519.189,-420.959,65135
519.127,-423.273,65031
519.064,-425.588,65050
519.002,-427.903,64987
518.94,-430.219,64970
518.877,-432.535,64873
518.815,-434.852,64872
518.753,-437.169,64691
518.69,-439.487,64759
518.628,-441.806,64803
518.565,-444.125,64828
518.503,-446.445,64666
518.441,-448.765,64568
518.378,-451.086,64582
518.316,-453.407,64651
518.254,-455.729,64470
518.191,-458.051,64415
518.129,-460.374,64482
518.067,-462.698,64620
518.004,-465.022,64343
517.942,-467.347,64357
517.879,-469.672,64365
517.817,-471.998,64503
517.755,-474.324,64458
517.692,-476.651,64255
517.63,-478.978,64307
517.568,-481.306,64122
517.505,-483.635,64142
517.443,-485.964,64190
517.38,-488.294,64123
517.318,-490.624,64183
517.256,-492.955,64177
517.193,-495.286,64207
517.131,-497.618,64182
517.069,-499.951,64093
517.006,-502.284,64038
516.944,-504.618,64266
516.881,-506.952,64012
516.819,-509.287,63857
516.757,-511.622,64072
516.694,-513.958,64203
516.632,-516.294,64046
516.57,-518.631,64029
516.507,-520.969,66589
516.445,-523.307,64157
516.383,-525.646,63953
516.32,-527.985,64094
516.258,-530.325,64031
516.195,-532.665,63984
516.133,-535.006,64035
516.071,-537.348,63969
516.008,-539.69,63957
515.946,-542.033,63806
515.884,-544.376,64107
515.821,-546.72,64053
515.759,-549.064,63998
515.696,-551.409,64012
515.634,-553.755,63936
515.572,-556.101,64016
515.509,-558.448,63879
515.447,-560.795,63769
515.385,-563.143,63761
515.322,-565.491,63763
515.26,-567.84,63929
515.198,-570.189,63859
515.135,-572.539,63785
515.073,-574.89,63820
515.01,-577.241,63902
514.948,-579.593,63957
514.886,-581.945,64024
514.823,-584.298,63897
514.761,-586.652,63829
514.699,-589.006,63720
514.636,-591.361,63756
514.574,-593.716,63724
514.511,-596.072,63634
514.449,-598.428,63637
514.387,-600.785,63658
514.324,-603.142,63644
514.262,-605.5,63462
514.2,-607.859,63724
514.137,-610.218,63709
514.075,-612.578,63699
514.012,-614.938,63611
513.95,-617.299,63746
513.888,-619.661,63636
513.825,-622.023,63658
513.763,-624.385,63541
513.701,-626.749,63575
513.638,-629.112,63568
513.576,-631.477,63585
513.514,-633.842,63301
513.451,-636.207,63629
513.389,-638.573,63509
513.326,-640.94,63473
513.264,-643.307,63436
513.202,-645.675,63587
513.139,-648.043,63498
513.077,-650.412,63543
513.015,-652.782,63442
512.952,-655.152,63312
512.89,-657.523,63239
512.827,-659.894,63439
512.765,-662.266,63430
512.703,-664.638,63378
512.64,-667.011,63444
512.578,-669.385,63327
512.516,-671.759,63236
512.453,-674.134,63424
512.391,-676.509,63466
512.328,-678.885,63368
512.266,-681.261,63327
512.204,-683.638,63425
512.141,-686.016,63267
512.079,-688.394,63227
512.017,-690.773,63197
511.954,-693.152,63228
511.892,-695.532,63398
511.83,-697.913,63053
511.767,-700.294,63183
511.705,-702.676,63269
511.642,-705.058,63195
511.58,-707.441,63026
511.518,-709.824,63211
511.455,-712.208,62901
511.393,-714.593,63085
511.331,-716.978,63212
511.268,-719.364,63069
511.206,-721.75,63155
511.143,-724.137,63126
511.081,-726.525,63126
511.019,-728.913,63040
510.956,-731.301,63010
510.894,-733.691,63118
510.832,-736.08,62920
510.769,-738.471,62945
510.707,-740.862,63003
510.644,-743.253,62916
510.582,-745.646,63057
510.52,-748.038,62975
510.457,-750.432,62962
510.395,-752.826,62999
510.333,-755.22,62889
510.27,-757.615,62888
510.208,-760.011,62910
510.146,-762.407,62827
510.083,-764.804,62836
510.021,-767.201,62822
509.958,-769.599,62699
509.896,-771.998,62755
509.834,-774.397,62849
509.771,-776.797,62932
509.709,-779.197,62568
509.647,-781.598,62763
509.584,-784,62766
509.522,-786.402,62711
509.459,-788.805,62684
509.397,-791.208,62829
509.335,-793.612,62609
509.272,-796.016,62724
509.21,-798.421,62823
509.148,-800.827,62684
509.085,-803.233,62718
509.023,-805.64,62716
508.96,-808.048,62685
508.898,-810.456,62711
508.836,-812.864,62542
508.773,-815.274,62563
508.711,-817.683,62617
525.364,-194.586,62237
525.301,-196.846,62614
525.239,-199.106,62558
525.177,-201.367,62534
525.114,-203.629,62693
525.052,-205.891,62797
524.99,-208.154,62679
524.927,-210.417,62739
524.865,-212.681,62636
524.802,-214.945,62550
524.74,-217.21,62757
524.678,-219.475,62712
524.615,-221.741,62691
524.553,-224.008,62725
524.491,-226.275,62727
524.428,-228.542,62725
524.366,-230.81,62558
524.304,-233.079,62803
524.241,-235.348,62748
524.179,-237.618,62877
524.116,-239.888,62922
524.054,-242.159,62861
523.992,-244.43,62792
523.929,-246.702,62769
523.867,-248.974,62895
523.805,-251.247,62958
523.742,-253.52,62930
523.68,-255.794,63046
523.617,-258.069,63024
523.555,-260.344,63075
523.493,-262.62,63251
523.43,-264.896,63389
523.368,-267.173,63759
523.306,-269.45,63911
523.243,-271.728,64512
523.181,-274.006,64774
523.119,-276.285,65120
523.056,-278.564,65703
522.994,-280.844,65845
522.931,-283.125,66264
522.869,-285.406,66149
522.807,-287.688,66418
522.744,-289.97,66689
522.682,-292.252,66758
522.62,-294.536,67018
522.557,-296.82,66736
522.495,-299.104,66816
522.432,-301.389,66794
522.37,-303.674,66954
522.308,-305.96,66819
522.245,-308.247,66469
522.183,-310.534,66767
522.121,-312.821,66636
522.058,-315.11,66702
521.996,-317.398,66626
521.933,-319.687,66644
521.871,-321.977,66318
521.809,-324.268,66546
521.746,-326.559,66390
521.684,-328.85,66569
521.622,-331.142,66437
521.559,-333.434,66353
521.497,-335.728,66241
521.435,-338.021,66268
521.372,-340.315,66259
521.31,-342.61,66198
521.247,-344.905,66286
521.185,-347.201,66415
521.123,-349.498,66287
521.06,-351.795,66130
520.998,-354.092,66157
520.936,-356.39,66095
520.873,-358.689,66038
520.811,-360.988,66087
520.748,-363.287,65929
520.686,-365.588,65958
520.624,-367.889,65991
520.561,-370.19,66019
520.499,-372.492,65624
520.437,-374.794,65866
520.374,-377.097,65897
520.312,-379.401,65843
520.249,-381.705,65713
520.187,-384.009,65663
520.125,-386.315,65647
520.062,-388.62,65678
520.0,-390.927,65587
519.938,-393.234,65622
519.875,-395.541,65623
519.813,-397.849,65648
519.751,-400.158,65485
519.688,-402.467,65332
519.626,-404.776,65421
519.563,-407.086,65544
519.501,-409.397,65580
519.439,-411.708,65375
519.376,-414.02,65209
519.314,-416.333,65099
519.252,-418.646,65322
519.189,-420.959,65043
519.127,-423.273,65236
519.064,-425.588,65135
519.002,-427.903,64977
518.94,-430.219,64974
518.877,-432.535,64944
518.815,-434.852,64835
518.753,-437.169,64889
518.69,-439.487,64793
518.628,-441.806,64726
518.565,-444.125,64754
518.503,-446.445,64660
518.441,-448.765,64667
518.378,-451.086,64688
518.316,-453.407,64598
518.254,-455.729,64589
518.191,-458.051,64420
518.129,-460.374,64488
518.067,-462.698,64510
518.004,-465.022,64476
517.942,-467.347,64461
517.879,-469.672,64427
517.817,-471.998,64317
517.755,-474.324,64518
517.692,-476.651,64183
517.63,-478.978,64248
517.568,-481.306,64126
517.505,-483.635,64194
517.443,-485.964,64225
517.38,-488.294,64158
517.318,-490.624,64282
517.256,-492.955,64023
517.193,-495.286,64317
517.131,-497.618,64100
517.069,-499.951,64175
517.006,-502.284,64182
516.944,-504.618,63965
516.881,-506.952,63998
516.819,-509.287,64094
516.757,-511.622,64017
516.694,-513.958,64143
516.632,-516.294,64059
516.57,-518.631,63920
516.507,-520.969,63998
516.445,-523.307,64014
516.383,-525.646,63945
516.32,-527.985,64103
516.258,-530.325,63998
516.195,-532.665,64001
516.133,-535.006,63898
516.071,-537.348,63961
516.008,-539.69,63972
515.946,-542.033,64040
515.884,-544.376,64015
515.821,-546.72,63815
515.759,-549.064,63931
515.696,-551.409,63905
515.634,-553.755,63930
515.572,-556.101,63781
515.509,-558.448,63945
515.447,-560.795,63992
515.385,-563.143,63982
515.322,-565.491,63705
515.26,-567.84,63821
515.198,-570.189,63956
515.135,-572.539,63818
515.073,-574.89,63737
515.01,-577.241,63763
514.948,-579.593,63757
514.886,-581.945,63832
514.823,-584.298,63837
514.761,-586.652,63873
514.699,-589.006,63804
514.636,-591.361,63799
514.574,-593.716,63770
514.511,-596.072,63722
514.449,-598.428,63736
514.387,-600.785,63766
514.324,-603.142,63696
514.262,-605.5,63845
514.2,-607.859,63544
514.137,-610.218,63705
514.075,-612.578,63558
514.012,-614.938,63801
513.95,-617.299,63557
513.888,-619.661,63698
513.825,-622.023,63554
513.763,-624.385,63533
513.701,-626.749,63726
513.638,-629.112,63621
513.576,-631.477,63607
513.514,-633.842,63532
513.451,-636.207,63471
513.389,-638.573,63371
513.326,-640.94,63504
513.264,-643.307,63481
513.202,-645.675,63515
513.139,-648.043,63467
513.077,-650.412,63484
513.015,-652.782,63534
512.952,-655.152,63434
512.89,-657.523,63411
512.827,-659.894,63360
512.765,-662.266,63298
512.703,-664.638,63382
512.64,-667.011,63562
512.578,-669.385,63348
512.516,-671.759,63481
512.453,-674.134,63499
512.391,-676.509,63301
512.328,-678.885,63385
512.266,-681.261,63323
512.204,-683.638,63345
512.141,-686.016,63276
512.079,-688.394,63287
512.017,-690.773,63304
511.954,-693.152,63250
511.892,-695.532,63229
511.83,-697.913,63181
511.767,-700.294,63140
511.705,-702.676,63132
511.642,-705.058,63224
511.58,-707.441,63202
511.518,-709.824,63028
511.455,-712.208,63112
511.393,-714.593,63041
511.331,-716.978,62972
511.268,-719.364,63170
511.206,-721.75,63087
511.143,-724.137,63206
511.081,-726.525,63040
511.019,-728.913,62955
510.956,-731.301,63104
510.894,-733.691,63107
510.832,-736.08,62957
510.769,-738.471,63079
510.707,-740.862,63106
510.644,-743.253,62934
510.582,-745.646,63016
510.52,-748.038,62885
510.457,-750.432,62890
510.395,-752.826,62920
510.333,-755.22,62888
510.27,-757.615,62853
510.208,-760.011,62904
510.146,-762.407,62868
510.083,-764.804,62823
510.021,-767.201,62896
509.958,-769.599,62824
509.896,-771.998,62759
509.834,-774.397,62795
509.771,-776.797,62875
509.709,-779.197,62803
509.647,-781.598,62711
509.584,-784,62765
509.522,-786.402,62809
509.459,-788.805,62567
509.397,-791.208,62770
509.335,-793.612,62871
509.272,-796.016,62799
509.21,-798.421,62745
509.148,-800.827,62717
509.085,-803.233,62672
509.023,-805.64,62793
508.96,-808.048,62698
508.898,-810.456,62698
508.836,-812.864,62546
508.773,-815.274,62627
508.711,-817.683,62647
525.364,-194.586,62386
525.301,-196.846,62633
525.239,-199.106,62592
525.177,-201.367,62582
525.114,-203.629,62622
525.052,-205.891,62630
524.99,-208.154,62577
524.927,-210.417,62713
524.865,-212.681,62797
524.802,-214.945,62768
524.74,-217.21,62692
524.678,-219.475,62728
524.615,-221.741,62715
524.553,-224.008,62743
524.491,-226.275,62734
524.428,-228.542,62833
524.366,-230.81,62786
524.304,-233.079,62810
524.241,-235.348,62700
524.179,-237.618,62710
524.116,-239.888,62815
524.054,-242.159,62845
523.992,-244.43,62884
523.929,-246.702,62837
523.867,-248.974,62880
523.805,-251.247,62854
523.742,-253.52,62920
523.68,-255.794,62923
523.617,-258.069,62971
523.555,-260.344,63048
523.493,-262.62,63192
523.43,-264.896,63438
523.368,-267.173,63518
523.306,-269.45,63860
523.243,-271.728,64276
523.181,-274.006,64681
523.119,-276.285,65263
523.056,-278.564,65534
522.994,-280.844,65842
522.931,-283.125,66077
522.869,-285.406,66292
522.807,-287.688,66455
522.744,-289.97,66643
522.682,-292.252,66722
522.62,-294.536,66678
522.557,-296.82,66747
522.495,-299.104,66764
522.432,-301.389,66738
522.37,-303.674,66864
522.308,-305.96,66687
522.245,-308.247,66621
522.183,-310.534,66739
522.121,-312.821,66459
522.058,-315.11,66545
521.996,-317.398,66552
521.933,-319.687,66465
521.871,-321.977,66487
521.809,-324.268,66484
521.746,-326.559,66531
521.684,-328.85,66374
521.622,-331.142,66394
521.559,-333.434,66195
521.497,-335.728,66235
521.435,-338.021,66501
521.372,-340.315,66293
521.31,-342.61,66506
521.247,-344.905,66194
521.185,-347.201,66424
521.123,-349.498,66232
521.06,-351.795,66057
520.998,-354.092,66172
520.936,-356.39,66173
520.873,-358.689,66061
520.811,-360.988,65946
520.748,-363.287,66040
520.686,-365.588,66036
520.624,-367.889,65743
520.561,-370.19,65975
520.499,-372.492,65894
520.437,-374.794,65747
520.374,-377.097,65767
520.312,-379.401,65753
520.249,-381.705,65588
520.187,-384.009,65819
520.125,-386.315,65574
520.062,-388.62,65653
520.0,-390.927,65733
519.938,-393.234,65542
519.875,-395.541,65471
519.813,-397.849,65567
519.751,-400.158,65328
519.688,-402.467,65355
519.626,-404.776,65472
519.563,-407.086,65456
519.501,-409.397,65386
519.439,-411.708,65286
519.376,-414.02,65338
519.314,-416.333,65128
519.252,-418.646,65340
519.189,-420.959,65095
519.127,-423.273,65193
519.064,-425.588,64925
519.002,-427.903,64856
518.94,-430.219,64913
518.877,-432.535,64867
518.815,-434.852,64775
518.753,-437.169,64917
518.69,-439.487,64888
518.628,-441.806,64697
518.565,-444.125,64729
518.503,-446.445,64668
518.441,-448.765,64622
518.378,-451.086,64511
518.316,-453.407,64638
518.254,-455.729,64579
518.191,-458.051,64456
518.129,-460.374,64529
518.067,-462.698,64277
518.004,-465.022,64337
517.942,-467.347,64427
517.879,-469.672,64310
517.817,-471.998,64324
517.755,-474.324,64355
517.692,-476.651,64156
517.63,-478.978,64279
517.568,-481.306,64079
517.505,-483.635,64095
517.443,-485.964,64255
517.38,-488.294,64082
517.318,-490.624,64218
517.256,-492.955,64214
517.193,-495.286,64067
517.131,-497.618,64241
517.069,-499.951,64055
517.006,-502.284,64126
516.944,-504.618,64115
516.881,-506.952,63928
516.819,-509.287,63900
516.757,-511.622,63977
516.694,-513.958,64094
516.632,-516.294,64103
516.57,-518.631,64123
516.507,-520.969,63974
516.445,-523.307,64007
516.383,-525.646,64224
516.32,-527.985,64034
516.258,-530.325,64045
516.195,-532.665,64021
516.133,-535.006,63960
516.071,-537.348,63896
516.008,-539.69,64114
515.946,-542.033,64018
515.884,-544.376,63785
515.821,-546.72,63971
515.759,-549.064,63988
515.696,-551.409,63939
515.634,-553.755,63777
515.572,-556.101,63844
515.509,-558.448,63925
515.447,-560.795,63914
515.385,-563.143,63893
515.322,-565.491,63887
515.26,-567.84,63875
515.198,-570.189,63927
515.135,-572.539,64021
515.073,-574.89,63707
515.01,-577.241,63938
514.948,-579.593,63882
514.886,-581.945,63752
514.823,-584.298,63736
514.761,-586.652,63758
514.699,-589.006,63736
514.636,-591.361,63857
514.574,-593.716,63734
514.511,-596.072,63724
514.449,-598.428,63781
514.387,-600.785,63658
514.324,-603.142,63710
514.262,-605.5,63655
514.2,-607.859,63651
514.137,-610.218,63724
514.075,-612.578,63675
514.012,-614.938,63642
513.95,-617.299,63513
513.888,-619.661,63748
513.825,-622.023,63475
513.763,-624.385,63694
513.701,-626.749,63629
513.638,-629.112,63485
513.576,-631.477,63501
513.514,-633.842,63499
513.451,-636.207,63483
513.389,-638.573,63518
513.326,-640.94,63450
513.264,-643.307,63594
513.202,-645.675,63408
513.139,-648.043,63512
513.077,-650.412,63377
513.015,-652.782,63506
512.952,-655.152,63334
512.89,-657.523,63459
512.827,-659.894,63396
512.765,-662.266,63509
512.703,-664.638,63400
512.64,-667.011,63432
512.578,-669.385,63392
512.516,-671.759,63401
512.453,-674.134,63260
512.391,-676.509,63151
512.328,-678.885,63368
512.266,-681.261,63216
512.204,-683.638,63256
512.141,-686.016,63376
512.079,-688.394,63115
512.017,-690.773,63286
511.954,-693.152,63102
511.892,-695.532,63259
511.83,-697.913,63265
511.767,-700.294,63272
511.705,-702.676,63251
511.642,-705.058,63153
511.58,-707.441,63133
511.518,-709.824,63113
511.455,-712.208,63039
511.393,-714.593,63136
511.331,-716.978,62998
511.268,-719.364,63104
511.206,-721.75,63141
511.143,-724.137,63264
511.081,-726.525,63117
511.019,-728.913,62947
510.956,-731.301,62950
510.894,-733.691,63029
510.832,-736.08,63129
510.769,-738.471,62995
510.707,-740.862,63019
510.644,-743.253,63044
510.582,-745.646,62988
510.52,-748.038,62904
510.457,-750.432,62907
510.395,-752.826,62890
510.333,-755.22,62832
510.27,-757.615,62951
510.208,-760.011,62945
510.146,-762.407,62874
510.083,-764.804,62871
510.021,-767.201,62938
509.958,-769.599,62898
509.896,-771.998,62788
509.834,-774.397,62768
509.771,-776.797,62816
509.709,-779.197,62731
509.647,-781.598,62701
509.584,-784,62798
509.522,-786.402,62726
509.459,-788.805,62779
509.397,-791.208,62721
509.335,-793.612,62605
509.272,-796.016,62763
509.21,-798.421,62538
509.148,-800.827,62766
509.085,-803.233,62612
509.023,-805.64,62641
508.96,-808.048,62604
508.898,-810.456,62585
508.836,-812.864,62602
508.773,-815.274,62574
508.711,-817.683,62578
508.661,-819.612,62593