File: tomke/20240809/raw_data/Si_onTiO2_40mA_30mW_30sec_5acc_545nm_bg.txt
Wavelength(nm), Raman shift(cm^-1), Intensity(counts)
553.364,768.549,76282
553.301,766.512,76450
553.239,764.475,76324
553.177,762.437,76204
553.114,760.398,76525
553.052,758.359,76211
552.99,756.32,76517
552.927,754.28,76047
552.865,752.24,75943
552.802,750.199,76185
552.74,748.158,76455
552.678,746.116,76361
552.615,744.074,76208
552.553,742.032,76380
552.491,739.989,76039
552.428,737.945,76173
552.366,735.901,76490
552.304,733.857,76460
552.241,731.812,76056
552.179,729.766,75900
552.116,727.721,76161
552.054,725.674,76320
551.992,723.628,76299
551.929,721.58,76161
551.867,719.533,75802
551.805,717.485,76195
551.742,715.436,75917
551.68,713.387,75889
551.617,711.337,76134
551.555,709.287,76211
551.493,707.237,75936
551.43,705.186,76242
551.368,703.135,75957
551.306,701.083,76297
551.243,699.031,76140
551.181,696.978,76188
551.119,694.925,76113
551.056,692.871,76061
550.994,690.817,75890
550.931,688.762,76045
550.869,686.707,76226
550.807,684.651,75812
550.744,682.595,76119
550.682,680.539,75546
550.62,678.482,76325
550.557,676.425,75826
550.495,674.367,76086
550.432,672.308,75878
550.37,670.25,76075
550.308,668.19,75559
550.245,666.131,75686
550.183,664.07,75619
550.121,662.01,75784
550.058,659.948,75767
549.996,657.887,75850
549.933,655.825,75346
549.871,653.762,75520
549.809,651.699,75361
549.746,649.636,75557
549.684,647.572,75879
549.622,645.507,75694
549.559,643.442,75731
549.497,641.377,75614
549.435,639.311,75512
549.372,637.245,75547
549.31,635.178,75502
549.247,633.111,75736
549.185,631.043,75681
549.123,628.975,75529
549.06,626.906,75531
548.998,624.837,75452
548.936,622.768,75697
548.873,620.698,75460
548.811,618.627,75396
548.748,616.556,75372
548.686,614.485,75363
548.624,612.413,75617
548.561,610.34,75332
548.499,608.267,75197
548.437,606.194,75024
548.374,604.12,74933
548.312,602.046,74818
548.249,599.971,75161
548.187,597.896,74989
548.125,595.82,74828
548.062,593.744,74895
548.0,591.667,74643
547.938,589.59,74802
547.875,587.513,74634
547.813,585.434,74757
547.751,583.356,74538
547.688,581.277,74052
547.626,579.197,74319
547.563,577.117,74163
547.501,575.037,74198
547.439,572.956,74290
547.376,570.875,74081
547.314,568.793,73986
547.252,566.71,73844
547.189,564.628,74187
547.127,562.544,73837
547.064,560.461,73921
547.002,558.376,73707
546.94,556.292,73958
546.877,554.206,73886
546.815,552.121,73787
546.753,550.035,73899
546.69,547.948,73983
546.628,545.861,73841
546.565,543.773,73697
546.503,541.685,73718
546.441,539.597,73868
546.378,537.508,73477
546.316,535.418,73398
546.254,533.328,73580
546.191,531.238,73526
546.129,529.147,73115
546.067,527.056,73096
546.004,524.964,73329
545.942,522.871,73238
545.879,520.778,73278
545.817,518.685,73074
545.755,516.591,73032
545.692,514.497,72820
545.63,512.402,72691
545.568,510.307,72737
545.505,508.211,72746
545.443,506.115,72830
545.38,504.019,72892
545.318,501.922,72808
545.256,499.824,72754
545.193,497.726,72503
545.131,495.627,72685
545.069,493.528,72645
545.006,491.429,72744
544.944,489.329,72787
544.881,487.228,72447
544.819,485.127,72786
544.757,483.026,72880
544.694,480.924,72653
544.632,478.821,72765
544.57,476.718,72772
544.507,474.615,72630
544.445,472.511,72622
544.383,470.407,73017
544.32,468.302,72527
544.258,466.197,72879
544.195,464.091,72606
544.133,461.985,72546
544.071,459.878,72389
544.008,457.771,72380
543.946,455.663,72406
543.884,453.555,72147
543.821,451.446,72249
543.759,449.337,72182
543.696,447.227,72164
543.634,445.117,72210
543.572,443.006,72117
543.509,440.895,71827
543.447,438.784,72336
543.385,436.671,72305
543.322,434.559,72101
543.26,432.446,72155
543.198,430.332,71944
543.135,428.218,72003
543.073,426.104,72059
543.01,423.989,71962
542.948,421.873,72002
542.886,419.757,72190
542.823,417.641,71998
542.761,415.524,71974
542.699,413.407,72004
542.636,411.289,71942
542.574,409.17,71951
542.511,407.051,72061
542.449,404.932,72002
542.387,402.812,72088
542.324,400.692,71960
542.262,398.571,71870
542.2,396.45,72037
542.137,394.328,71659
542.075,392.205,71925
542.012,390.083,71998
541.95,387.959,71965
541.888,385.836,71550
541.825,383.711,71739
541.763,381.587,71420
541.701,379.461,71581
541.638,377.336,71553
541.576,375.209,71389
541.514,373.083,71466
541.451,370.955,71254
541.389,368.828,71458
541.326,366.7,71316
541.264,364.571,71172
541.202,362.442,71157
541.139,360.312,71412
541.077,358.182,71437
541.015,356.051,71267
540.952,353.92,71315
540.89,351.789,70925
540.827,349.657,71394
540.765,347.524,71029
540.703,345.391,71290
540.64,343.257,70909
540.578,341.123,70877
540.516,338.989,70844
540.453,336.854,70595
540.391,334.718,70600
540.328,332.582,70533
540.266,330.445,70674
540.204,328.308,70270
540.141,326.171,70325
540.079,324.033,70388
540.017,321.894,70478
539.954,319.755,70096
539.892,317.616,70161
539.83,315.476,70357
539.767,313.335,70476
539.705,311.194,70412
539.642,309.053,70301
539.58,306.911,70353
539.518,304.768,70287
539.455,302.625,70216
539.393,300.482,70097
539.331,298.338,70195
539.268,296.194,69946
539.206,294.049,69781
539.143,291.903,69479
539.081,289.757,69295
539.019,287.611,69008
538.956,285.464,68817
538.894,283.316,68947
538.832,281.169,68553
538.769,279.02,68794
538.707,276.871,68928
538.644,274.722,68789
538.582,272.572,68437
538.52,270.421,67745
538.457,268.271,67060
538.395,266.119,65935
538.333,263.967,64795
538.27,261.815,63778
538.208,259.662,63022
538.146,257.508,62102
538.083,255.355,61681
538.021,253.2,61254
537.958,251.045,61124
537.896,248.89,60991
537.834,246.734,60977
537.771,244.578,60812
537.709,242.421,60773
537.647,240.263,60710
537.584,238.105,60749
537.522,235.947,60759
537.459,233.788,60781
537.397,231.629,60588
537.335,229.469,60685
537.272,227.308,60619
537.21,225.147,60559
537.148,222.986,60659
537.085,220.824,60587
537.023,218.662,60549
536.96,216.499,60588
536.898,214.335,60546
536.836,212.171,60754
536.773,210.007,60636
536.711,207.842,60663
553.364,768.549,75793
553.301,766.512,76177
553.239,764.475,76053
553.177,762.437,76070
553.114,760.398,76106
553.052,758.359,75798
552.99,756.32,76105
552.927,754.28,76187
552.865,752.24,76096
552.802,750.199,76192
552.74,748.158,75846
552.678,746.116,76016
552.615,744.074,75955
552.553,742.032,75909
552.491,739.989,76305
552.428,737.945,75541
552.366,735.901,76065
552.304,733.857,75530
552.241,731.812,75873
552.179,729.766,75876
552.116,727.721,75767
552.054,725.674,75889
551.992,723.628,75635
551.929,721.58,75619
551.867,719.533,75869
551.805,717.485,75752
551.742,715.436,75911
551.68,713.387,75811
551.617,711.337,75802
551.555,709.287,75554
551.493,707.237,75731
551.43,705.186,75708
551.368,703.135,75810
551.306,701.083,75840
551.243,699.031,75926
551.181,696.978,76118
551.119,694.925,75790
551.056,692.871,75889
550.994,690.817,75563
550.931,688.762,75882
550.869,686.707,75700
550.807,684.651,75729
550.744,682.595,75631
550.682,680.539,75387
550.62,678.482,75389
550.557,676.425,75527
550.495,674.367,75560
550.432,672.308,75615
550.37,670.25,75663
550.308,668.19,75638
550.245,666.131,75441
550.183,664.07,75496
550.121,662.01,75520
550.058,659.948,75423
549.996,657.887,75320
549.933,655.825,75503
549.871,653.762,75311
549.809,651.699,75199
549.746,649.636,75548
549.684,647.572,75302
549.622,645.507,75294
549.559,643.442,75454
549.497,641.377,75280
549.435,639.311,75182
549.372,637.245,75318
549.31,635.178,75134
549.247,633.111,75351
549.185,631.043,75172
549.123,628.975,75272
549.06,626.906,75339
548.998,624.837,75161
548.936,622.768,75323
548.873,620.698,75023
548.811,618.627,75267
548.748,616.556,75032
548.686,614.485,75056
548.624,612.413,75078
548.561,610.34,75015
548.499,608.267,75149
548.437,606.194,74827
548.374,604.12,74997
548.312,602.046,74372
548.249,599.971,74934
548.187,597.896,74636
548.125,595.82,74670
548.062,593.744,74948
548.0,591.667,74293
547.938,589.59,74608
547.875,587.513,74369
547.813,585.434,74148
547.751,583.356,74304
547.688,581.277,74105
547.626,579.197,73965
547.563,577.117,74181
547.501,575.037,74065
547.439,572.956,73712
547.376,570.875,74017
547.314,568.793,73859
547.252,566.71,73577
547.189,564.628,73725
547.127,562.544,73684
547.064,560.461,73883
547.002,558.376,73604
546.94,556.292,73902
546.877,554.206,73630
546.815,552.121,73554
546.753,550.035,73478
546.69,547.948,73666
546.628,545.861,73419
546.565,543.773,73363
546.503,541.685,73293
546.441,539.597,73564
546.378,537.508,73135
546.316,535.418,72966
546.254,533.328,73041
546.191,531.238,73151
546.129,529.147,72957
546.067,527.056,72822
546.004,524.964,72789
545.942,522.871,72798
545.879,520.778,72806
545.817,518.685,72678
545.755,516.591,72586
545.692,514.497,72460
545.63,512.402,72723
545.568,510.307,72340
545.505,508.211,72558
545.443,506.115,72610
545.38,504.019,72670
545.318,501.922,72610
545.256,499.824,72466
545.193,497.726,72492
545.131,495.627,72460
545.069,493.528,72543
545.006,491.429,72597
544.944,489.329,72352
544.881,487.228,72509
544.819,485.127,72557
544.757,483.026,72384
544.694,480.924,72440
544.632,478.821,72527
544.57,476.718,72341
544.507,474.615,72430
544.445,472.511,72470
544.383,470.407,72336
544.32,468.302,72436
544.258,466.197,72709
544.195,464.091,72280
544.133,461.985,72279
544.071,459.878,72623
544.008,457.771,72317
543.946,455.663,72305
543.884,453.555,72053
543.821,451.446,72352
543.759,449.337,72034
543.696,447.227,72091
543.634,445.117,71868
543.572,443.006,71644
543.509,440.895,71726
543.447,438.784,71758
543.385,436.671,71716
543.322,434.559,71828
543.26,432.446,71572
543.198,430.332,71565
543.135,428.218,71809
543.073,426.104,71861
543.01,423.989,71776
542.948,421.873,71577
542.886,419.757,71923
542.823,417.641,71696
542.761,415.524,71729
542.699,413.407,71901
542.636,411.289,71842
542.574,409.17,71769
542.511,407.051,71786
542.449,404.932,71489
542.387,402.812,71784
542.324,400.692,71707
542.262,398.571,71672
542.2,396.45,71685
542.137,394.328,71631
542.075,392.205,71679
542.012,390.083,71363
541.95,387.959,71392
541.888,385.836,71585
541.825,383.711,71264
541.763,381.587,71283
541.701,379.461,71372
541.638,377.336,71377
541.576,375.209,70994
541.514,373.083,71117
541.451,370.955,71171
541.389,368.828,71193
541.326,366.7,71003
541.264,364.571,71167
541.202,362.442,71032
541.139,360.312,71180
541.077,358.182,70949
541.015,356.051,71315
540.952,353.92,70985
540.89,351.789,70864
540.827,349.657,70911
540.765,347.524,70827
540.703,345.391,70936
540.64,343.257,70781
540.578,341.123,70806
540.516,338.989,70561
540.453,336.854,70500
540.391,334.718,70327
540.328,332.582,70470
540.266,330.445,70101
540.204,328.308,70161
540.141,326.171,70001
540.079,324.033,69940
540.017,321.894,70077
539.954,319.755,69964
539.892,317.616,69888
539.83,315.476,70096
539.767,313.335,70157
539.705,311.194,70179
539.642,309.053,69990
539.58,306.911,70296
539.518,304.768,70190
539.455,302.625,70045
539.393,300.482,69754
539.331,298.338,70010
539.268,296.194,69677
539.206,294.049,69411
539.143,291.903,69304
539.081,289.757,69045
539.019,287.611,68904
538.956,285.464,68632
538.894,283.316,68610
538.832,281.169,68552
538.769,279.02,68598
538.707,276.871,68621
538.644,274.722,68641
538.582,272.572,68316
538.52,270.421,67588
538.457,268.271,66782
538.395,266.119,65877
538.333,263.967,64792
538.27,261.815,63616
538.208,259.662,62717
538.146,257.508,62200
538.083,255.355,61705
538.021,253.2,61348
537.958,251.045,61108
537.896,248.89,61045
537.834,246.734,60854
537.771,244.578,60803
537.709,242.421,60650
537.647,240.263,60659
537.584,238.105,60731
537.522,235.947,60734
537.459,233.788,60632
537.397,231.629,60601
537.335,229.469,60605
537.272,227.308,60667
537.21,225.147,60666
537.148,222.986,60599
537.085,220.824,60593
537.023,218.662,60604
536.96,216.499,60594
536.898,214.335,60613
536.836,212.171,60623
536.773,210.007,60551
536.711,207.842,60598
553.364,768.549,75159
553.301,766.512,75967
553.239,764.475,75473
553.177,762.437,75823
553.114,760.398,75839
553.052,758.359,75861
552.99,756.32,76237
552.927,754.28,75828
552.865,752.24,75858
552.802,750.199,75736
552.74,748.158,75914
552.678,746.116,75534
552.615,744.074,75637
552.553,742.032,75609
552.491,739.989,75621
552.428,737.945,75620
552.366,735.901,75716
552.304,733.857,75429
552.241,731.812,75675
552.179,729.766,75834
552.116,727.721,75564
552.054,725.674,75199
551.992,723.628,75528
551.929,721.58,75355
551.867,719.533,75580
551.805,717.485,75488
551.742,715.436,75752
551.68,713.387,75292
551.617,711.337,75494
551.555,709.287,75515
551.493,707.237,75617
551.43,705.186,75946
551.368,703.135,75450
551.306,701.083,75667
551.243,699.031,75519
551.181,696.978,75593
551.119,694.925,75681
551.056,692.871,75387
550.994,690.817,75389
550.931,688.762,75476
550.869,686.707,75603
550.807,684.651,75410
550.744,682.595,75314
550.682,680.539,75239
550.62,678.482,75306
550.557,676.425,75337
550.495,674.367,75057
550.432,672.308,75262
550.37,670.25,75205
550.308,668.19,75197
550.245,666.131,75386
550.183,664.07,75035
550.121,662.01,75362
550.058,659.948,75238
549.996,657.887,75140
549.933,655.825,74959
549.871,653.762,75032
549.809,651.699,74763
549.746,649.636,75034
549.684,647.572,74965
549.622,645.507,75044
549.559,643.442,75057
549.497,641.377,75072
549.435,639.311,74873
549.372,637.245,75008
549.31,635.178,75048
549.247,633.111,75195
549.185,631.043,74852
549.123,628.975,75108
549.06,626.906,75121
548.998,624.837,75171
548.936,622.768,75144
548.873,620.698,75045
548.811,618.627,74914
548.748,616.556,74909
548.686,614.485,74776
548.624,612.413,74933
548.561,610.34,74987
548.499,608.267,74606
548.437,606.194,74715
548.374,604.12,74737
548.312,602.046,74707
548.249,599.971,74574
548.187,597.896,74547
548.125,595.82,74320
548.062,593.744,74358
548.0,591.667,74222
547.938,589.59,74009
547.875,587.513,74026
547.813,585.434,74109
547.751,583.356,73962
547.688,581.277,73795
547.626,579.197,73605
547.563,577.117,73693
547.501,575.037,73618
547.439,572.956,73701
547.376,570.875,73554
547.314,568.793,73575
547.252,566.71,73591
547.189,564.628,73473
547.127,562.544,73342
547.064,560.461,73483
547.002,558.376,73443
546.94,556.292,73496
546.877,554.206,73427
546.815,552.121,73318
546.753,550.035,73217
546.69,547.948,73157
546.628,545.861,73069
546.565,543.773,73372
546.503,541.685,73264
546.441,539.597,73114
546.378,537.508,72998
546.316,535.418,72822
546.254,533.328,72641
546.191,531.238,72824
546.129,529.147,72931
546.067,527.056,72526
546.004,524.964,72654
545.942,522.871,72559
545.879,520.778,72566
545.817,518.685,72595
545.755,516.591,72481
545.692,514.497,72445
545.63,512.402,72455
545.568,510.307,72467
545.505,508.211,72406
545.443,506.115,72427
545.38,504.019,72433
545.318,501.922,72272
545.256,499.824,71981
545.193,497.726,72014
545.131,495.627,72102
545.069,493.528,72180
545.006,491.429,72185
544.944,489.329,72280
544.881,487.228,72279
544.819,485.127,72239
544.757,483.026,72448
544.694,480.924,72093
544.632,478.821,72075
544.57,476.718,72393
544.507,474.615,72150
544.445,472.511,72420
544.383,470.407,72198
544.32,468.302,72122
544.258,466.197,72341
544.195,464.091,72063
544.133,461.985,72079
544.071,459.878,71983
544.008,457.771,72062
543.946,455.663,71794
543.884,453.555,71903
543.821,451.446,71841
543.759,449.337,71855
543.696,447.227,71967
543.634,445.117,71603
543.572,443.006,71959
543.509,440.895,71448
543.447,438.784,71605
543.385,436.671,71395
543.322,434.559,71763
543.26,432.446,71766
543.198,430.332,71619
543.135,428.218,71616
543.073,426.104,71436
543.01,423.989,71562
542.948,421.873,71671
542.886,419.757,71690
542.823,417.641,71521
542.761,415.524,71485
542.699,413.407,71501
542.636,411.289,71792
542.574,409.17,71648
542.511,407.051,71521
542.449,404.932,71639
542.387,402.812,71291
542.324,400.692,71321
542.262,398.571,71449
542.2,396.45,71408
542.137,394.328,71289
542.075,392.205,71499
542.012,390.083,71456
541.95,387.959,71029
541.888,385.836,71202
541.825,383.711,71005
541.763,381.587,71073
541.701,379.461,70952
541.638,377.336,71085
541.576,375.209,71008
541.514,373.083,70951
541.451,370.955,71139
541.389,368.828,71228
541.326,366.7,70933
541.264,364.571,71006
541.202,362.442,82161
541.139,360.312,71309
541.077,358.182,71003
541.015,356.051,70746
540.952,353.92,71011
540.89,351.789,70919
540.827,349.657,70773
540.765,347.524,70634
540.703,345.391,70712
540.64,343.257,70420
540.578,341.123,70753
540.516,338.989,70306
540.453,336.854,70281
540.391,334.718,70085
540.328,332.582,70139
540.266,330.445,70077
540.204,328.308,69876
540.141,326.171,69889
540.079,324.033,70077
540.017,321.894,70040
539.954,319.755,69907
539.892,317.616,69884
539.83,315.476,70036
539.767,313.335,69923
539.705,311.194,69781
539.642,309.053,69907
539.58,306.911,69980
539.518,304.768,70011
539.455,302.625,69886
539.393,300.482,69682
539.331,298.338,69525
539.268,296.194,69394
539.206,294.049,69181
539.143,291.903,69194
539.081,289.757,68974
539.019,287.611,68560
538.956,285.464,68473
538.894,283.316,68533
538.832,281.169,68371
538.769,279.02,68595
538.707,276.871,68493
538.644,274.722,68405
538.582,272.572,68111
538.52,270.421,67706
538.457,268.271,66708
538.395,266.119,65674
538.333,263.967,64638
538.27,261.815,63494
538.208,259.662,62864
538.146,257.508,62033
538.083,255.355,61578
538.021,253.2,61242
537.958,251.045,61052
537.896,248.89,60873
537.834,246.734,60782
537.771,244.578,60754
537.709,242.421,60754
537.647,240.263,60669
537.584,238.105,60682
537.522,235.947,60646
537.459,233.788,60651
537.397,231.629,60688
537.335,229.469,60718
537.272,227.308,60690
537.21,225.147,60533
537.148,222.986,60619
537.085,220.824,60545
537.023,218.662,60734
536.96,216.499,60604
536.898,214.335,60618
536.836,212.171,60566
536.773,210.007,60626
536.711,207.842,60514
553.364,768.549,75246
553.301,766.512,75917
553.239,764.475,75794
553.177,762.437,75748
553.114,760.398,75746
553.052,758.359,75733
552.99,756.32,75850
552.927,754.28,75839
552.865,752.24,75642
552.802,750.199,75629
552.74,748.158,75761
552.678,746.116,75472
552.615,744.074,75868
552.553,742.032,75554
552.491,739.989,75810
552.428,737.945,75302
552.366,735.901,75281
552.304,733.857,75709
552.241,731.812,75425
552.179,729.766,75273
552.116,727.721,75382
552.054,725.674,75540
551.992,723.628,75339
551.929,721.58,75591
551.867,719.533,75713
551.805,717.485,75519
551.742,715.436,75622
551.68,713.387,75558
551.617,711.337,75260
551.555,709.287,75221
551.493,707.237,75369
551.43,705.186,75381
551.368,703.135,75555
551.306,701.083,75499
551.243,699.031,75694
551.181,696.978,75668
551.119,694.925,75652
551.056,692.871,75875
550.994,690.817,75497
550.931,688.762,75450
550.869,686.707,75634
550.807,684.651,75635
550.744,682.595,75448
550.682,680.539,75554
550.62,678.482,75083
550.557,676.425,75200
550.495,674.367,75208
550.432,672.308,75367
550.37,670.25,75101
550.308,668.19,74939
550.245,666.131,75162
550.183,664.07,75340
550.121,662.01,75037
550.058,659.948,74833
549.996,657.887,75377
549.933,655.825,75157
549.871,653.762,75232
549.809,651.699,74891
549.746,649.636,74918
549.684,647.572,75169
549.622,645.507,74873
549.559,643.442,74822
549.497,641.377,75227
549.435,639.311,74801
549.372,637.245,75058
549.31,635.178,75204
549.247,633.111,75027
549.185,631.043,74887
549.123,628.975,75291
549.06,626.906,75071
548.998,624.837,75083
548.936,622.768,74906
548.873,620.698,75239
548.811,618.627,75133
548.748,616.556,74997
548.686,614.485,74676
548.624,612.413,74771
548.561,610.34,74792
548.499,608.267,74705
548.437,606.194,74564
548.374,604.12,74753
548.312,602.046,74613
548.249,599.971,74386
548.187,597.896,74435
548.125,595.82,74322
548.062,593.744,74285
548.0,591.667,74334
547.938,589.59,73991
547.875,587.513,73895
547.813,585.434,74055
547.751,583.356,73885
547.688,581.277,74062
547.626,579.197,73956
547.563,577.117,73439
547.501,575.037,73913
547.439,572.956,73652
547.376,570.875,73479
547.314,568.793,73626
547.252,566.71,73765
547.189,564.628,73562
547.127,562.544,73429
547.064,560.461,73626
547.002,558.376,73563
546.94,556.292,73201
546.877,554.206,73262
546.815,552.121,73342
546.753,550.035,73386
546.69,547.948,73365
546.628,545.861,73153
546.565,543.773,73357
546.503,541.685,73125
546.441,539.597,73050
546.378,537.508,72982
546.316,535.418,72806
546.254,533.328,73005
546.191,531.238,73014
546.129,529.147,72710
546.067,527.056,72746
546.004,524.964,72588
545.942,522.871,72858
545.879,520.778,72766
545.817,518.685,72641
545.755,516.591,72456
545.692,514.497,72618
545.63,512.402,72630
545.568,510.307,72339
545.505,508.211,72331
545.443,506.115,72447
545.38,504.019,72184
545.318,501.922,72129
545.256,499.824,72020
545.193,497.726,72070
545.131,495.627,72078
545.069,493.528,72186
545.006,491.429,72247
544.944,489.329,72351
544.881,487.228,72151
544.819,485.127,72410
544.757,483.026,72106
544.694,480.924,72321
544.632,478.821,72255
544.57,476.718,72318
544.507,474.615,72059
544.445,472.511,71981
544.383,470.407,72372
544.32,468.302,71986
544.258,466.197,72285
544.195,464.091,72175
544.133,461.985,72150
544.071,459.878,72050
544.008,457.771,71995
543.946,455.663,71827
543.884,453.555,72091
543.821,451.446,71713
543.759,449.337,71943
543.696,447.227,71768
543.634,445.117,71660
543.572,443.006,71730
543.509,440.895,71501
543.447,438.784,71598
543.385,436.671,71574
543.322,434.559,71536
543.26,432.446,71743
543.198,430.332,71400
543.135,428.218,71180
543.073,426.104,71682
543.01,423.989,71678
542.948,421.873,71249
542.886,419.757,71416
542.823,417.641,71432
542.761,415.524,71789
542.699,413.407,71465
542.636,411.289,71497
542.574,409.17,71298
542.511,407.051,71625
542.449,404.932,71368
542.387,402.812,71506
542.324,400.692,71663
542.262,398.571,71433
542.2,396.45,71462
542.137,394.328,71569
542.075,392.205,71241
542.012,390.083,71543
541.95,387.959,71196
541.888,385.836,71194
541.825,383.711,71107
541.763,381.587,71197
541.701,379.461,71177
541.638,377.336,71089
541.576,375.209,70754
541.514,373.083,70776
541.451,370.955,70646
541.389,368.828,70874
541.326,366.7,70805
541.264,364.571,70927
541.202,362.442,70730
541.139,360.312,70639
541.077,358.182,71055
541.015,356.051,70832
540.952,353.92,71066
540.89,351.789,71120
540.827,349.657,70783
540.765,347.524,70700
540.703,345.391,70692
540.64,343.257,70628
540.578,341.123,70545
540.516,338.989,70199
540.453,336.854,70267
540.391,334.718,70123
540.328,332.582,70354
540.266,330.445,69988
540.204,328.308,70000
540.141,326.171,70076
540.079,324.033,69782
540.017,321.894,69699
539.954,319.755,70029
539.892,317.616,69715
539.83,315.476,69950
539.767,313.335,69979
539.705,311.194,69998
539.642,309.053,69904
539.58,306.911,70093
539.518,304.768,69850
539.455,302.625,69853
539.393,300.482,69713
539.331,298.338,69845
539.268,296.194,69673
539.206,294.049,69287
539.143,291.903,68961
539.081,289.757,68998
539.019,287.611,68771
538.956,285.464,68708
538.894,283.316,68502
538.832,281.169,68472
538.769,279.02,68612
538.707,276.871,68553
538.644,274.722,68336
538.582,272.572,68012
538.52,270.421,67606
538.457,268.271,66734
538.395,266.119,65714
538.333,263.967,64609
538.27,261.815,63570
538.208,259.662,62677
538.146,257.508,62192
538.083,255.355,61609
538.021,253.2,61297
537.958,251.045,61071
537.896,248.89,60876
537.834,246.734,60920
537.771,244.578,60698
537.709,242.421,60755
537.647,240.263,60677
537.584,238.105,60679
537.522,235.947,60627
537.459,233.788,60574
537.397,231.629,60634
537.335,229.469,60597
537.272,227.308,60619
537.21,225.147,60524
537.148,222.986,60585
537.085,220.824,60568
537.023,218.662,60521
536.96,216.499,60639
536.898,214.335,60676
536.836,212.171,60641
536.773,210.007,60676
536.711,207.842,60599
553.364,768.549,75670
553.301,766.512,75652
553.239,764.475,75950
553.177,762.437,75932
553.114,760.398,75912
553.052,758.359,76000
552.99,756.32,75748
552.927,754.28,75968
552.865,752.24,75857
552.802,750.199,75462
552.74,748.158,75551
552.678,746.116,75693
552.615,744.074,75705
552.553,742.032,75747
552.491,739.989,75567
552.428,737.945,75626
552.366,735.901,75506
552.304,733.857,75362
552.241,731.812,75454
552.179,729.766,75864
552.116,727.721,75485
552.054,725.674,75336
551.992,723.628,75425
551.929,721.58,75583
551.867,719.533,75443
551.805,717.485,75238
551.742,715.436,75260
551.68,713.387,75427
551.617,711.337,75359
551.555,709.287,75268
551.493,707.237,75431
551.43,705.186,75346
551.368,703.135,75549
551.306,701.083,75618
551.243,699.031,75312
551.181,696.978,75541
551.119,694.925,75705
551.056,692.871,75363
550.994,690.817,75335
550.931,688.762,75379
550.869,686.707,75459
550.807,684.651,75518
550.744,682.595,75484
550.682,680.539,75533
550.62,678.482,75371
550.557,676.425,75308
550.495,674.367,75429
550.432,672.308,75115
550.37,670.25,75392
550.308,668.19,75159
550.245,666.131,75076
550.183,664.07,75236
550.121,662.01,75237
550.058,659.948,75134
549.996,657.887,75111
549.933,655.825,75412
549.871,653.762,75039
549.809,651.699,75265
549.746,649.636,75020
549.684,647.572,75152
549.622,645.507,74858
549.559,643.442,74926
549.497,641.377,75106
549.435,639.311,75123
549.372,637.245,75071
549.31,635.178,74993
549.247,633.111,75366
549.185,631.043,74963
549.123,628.975,75071
549.06,626.906,75020
548.998,624.837,74893
548.936,622.768,75056
548.873,620.698,74923
548.811,618.627,74942
548.748,616.556,74982
548.686,614.485,74828
548.624,612.413,74711
548.561,610.34,74769
548.499,608.267,74862
548.437,606.194,74677
548.374,604.12,74431
548.312,602.046,74420
548.249,599.971,74459
548.187,597.896,74269
548.125,595.82,74330
548.062,593.744,74281
548.0,591.667,73983
547.938,589.59,74212
547.875,587.513,73859
547.813,585.434,74017
547.751,583.356,74075
547.688,581.277,73838
547.626,579.197,73748
547.563,577.117,73589
547.501,575.037,73792
547.439,572.956,73589
547.376,570.875,73599
547.314,568.793,73630
547.252,566.71,73524
547.189,564.628,73417
547.127,562.544,73454
547.064,560.461,73274
547.002,558.376,73356
546.94,556.292,73450
546.877,554.206,73331
546.815,552.121,73128
546.753,550.035,73316
546.69,547.948,73346
546.628,545.861,73224
546.565,543.773,73184
546.503,541.685,73145
546.441,539.597,73189
546.378,537.508,73137
546.316,535.418,73244
546.254,533.328,73058
546.191,531.238,72656
546.129,529.147,72846
546.067,527.056,72755
546.004,524.964,72655
545.942,522.871,72566
545.879,520.778,72716
545.817,518.685,72493
545.755,516.591,72278
545.692,514.497,72228
545.63,512.402,72205
545.568,510.307,72363
545.505,508.211,72221
545.443,506.115,72194
545.38,504.019,72207
545.318,501.922,72291
545.256,499.824,72004
545.193,497.726,72202
545.131,495.627,72421
545.069,493.528,72075
545.006,491.429,72297
544.944,489.329,71948
544.881,487.228,72284
544.819,485.127,72164
544.757,483.026,72339
544.694,480.924,74592
544.632,478.821,72416
544.57,476.718,72438
544.507,474.615,72152
544.445,472.511,72180
544.383,470.407,71994
544.32,468.302,72109
544.258,466.197,72405
544.195,464.091,72233
544.133,461.985,71935
544.071,459.878,71910
544.008,457.771,71830
543.946,455.663,71893
543.884,453.555,72093
543.821,451.446,71938
543.759,449.337,71875
543.696,447.227,72056
543.634,445.117,71505
543.572,443.006,71585
543.509,440.895,71650
543.447,438.784,71633
543.385,436.671,71845
543.322,434.559,71747
543.26,432.446,71665
543.198,430.332,71498
543.135,428.218,71710
543.073,426.104,71323
543.01,423.989,71511
542.948,421.873,71831
542.886,419.757,71696
542.823,417.641,71518
542.761,415.524,71570
542.699,413.407,71348
542.636,411.289,71626
542.574,409.17,71549
542.511,407.051,71769
542.449,404.932,71700
542.387,402.812,71483
542.324,400.692,71538
542.262,398.571,71369
542.2,396.45,71291
542.137,394.328,71494
542.075,392.205,71280
542.012,390.083,71358
541.95,387.959,71284
541.888,385.836,71109
541.825,383.711,71038
541.763,381.587,71033
541.701,379.461,70928
541.638,377.336,71145
541.576,375.209,70986
541.514,373.083,70980
541.451,370.955,70946
541.389,368.828,70874
541.326,366.7,71034
541.264,364.571,71010
541.202,362.442,70789
541.139,360.312,70706
541.077,358.182,70712
541.015,356.051,70886
540.952,353.92,70904
540.89,351.789,70543
540.827,349.657,70657
540.765,347.524,70738
540.703,345.391,70530
540.64,343.257,70605
540.578,341.123,70603
540.516,338.989,70509
540.453,336.854,70136
540.391,334.718,70128
540.328,332.582,70223
540.266,330.445,70212
540.204,328.308,69984
540.141,326.171,69803
540.079,324.033,69948
540.017,321.894,69737
539.954,319.755,69772
539.892,317.616,69974
539.83,315.476,69631
539.767,313.335,69845
539.705,311.194,69793
539.642,309.053,69880
539.58,306.911,70019
539.518,304.768,69909
539.455,302.625,69872
539.393,300.482,69911
539.331,298.338,69823
539.268,296.194,69719
539.206,294.049,69215
539.143,291.903,69189
539.081,289.757,68734
539.019,287.611,68654
538.956,285.464,68416
538.894,283.316,68330
538.832,281.169,68532
538.769,279.02,68537
538.707,276.871,68601
538.644,274.722,68462
538.582,272.572,68122
538.52,270.421,67567
538.457,268.271,66653
538.395,266.119,65621
538.333,263.967,64733
538.27,261.815,63469
538.208,259.662,62861
538.146,257.508,61974
538.083,255.355,61704
538.021,253.2,61307
537.958,251.045,61077
537.896,248.89,60867
537.834,246.734,60774
537.771,244.578,60798
537.709,242.421,60741
537.647,240.263,60681
537.584,238.105,60730
537.522,235.947,60617
537.459,233.788,60587
537.397,231.629,60668
537.335,229.469,60636
537.272,227.308,60546
537.21,225.147,60633
537.148,222.986,60686
537.085,220.824,60580
537.023,218.662,60556
536.96,216.499,60640
536.898,214.335,60600
536.836,212.171,60712
536.773,210.007,60507
536.711,207.842,60581
536.661,206.11,60562