File: tomke/20240809/raw_data/Si_onTiO2_100mA_30mW_30sec_5acc_545nm_bg.txt
Wavelength(nm), Raman shift(cm^-1), Intensity(counts)
553.364,768.549,298727
553.301,766.512,299655
553.239,764.475,299919
553.177,762.437,299068
553.114,760.398,298534
553.052,758.359,298251
552.99,756.32,297752
552.927,754.28,298968
552.865,752.24,297272
552.802,750.199,296393
552.74,748.158,296663
552.678,746.116,296098
552.615,744.074,296347
552.553,742.032,294881
552.491,739.989,295429
552.428,737.945,295508
552.366,735.901,294270
552.304,733.857,294223
552.241,731.812,293113
552.179,729.766,293288
552.116,727.721,293547
552.054,725.674,292436
551.992,723.628,292619
551.929,721.58,293381
551.867,719.533,292651
551.805,717.485,293103
551.742,715.436,293267
551.68,713.387,291894
551.617,711.337,293041
551.555,709.287,293294
551.493,707.237,293104
551.43,705.186,292619
551.368,703.135,292847
551.306,701.083,293615
551.243,699.031,291946
551.181,696.978,291677
551.119,694.925,292674
551.056,692.871,293138
550.994,690.817,291826
550.931,688.762,291262
550.869,686.707,290852
550.807,684.651,290579
550.744,682.595,290281
550.682,680.539,289627
550.62,678.482,288995
550.557,676.425,287846
550.495,674.367,287614
550.432,672.308,288256
550.37,670.25,286991
550.308,668.19,287537
550.245,666.131,285796
550.183,664.07,284820
550.121,662.01,284627
550.058,659.948,285060
549.996,657.887,284043
549.933,655.825,283904
549.871,653.762,283271
549.809,651.699,283550
549.746,649.636,283143
549.684,647.572,284528
549.622,645.507,282651
549.559,643.442,283640
549.497,641.377,282669
549.435,639.311,283030
549.372,637.245,282221
549.31,635.178,283580
549.247,633.111,282646
549.185,631.043,283438
549.123,628.975,283221
549.06,626.906,283500
548.998,624.837,283466
548.936,622.768,283051
548.873,620.698,282356
548.811,618.627,282333
548.748,616.556,280931
548.686,614.485,281464
548.624,612.413,280157
548.561,610.34,280065
548.499,608.267,278662
548.437,606.194,277495
548.374,604.12,278115
548.312,602.046,276752
548.249,599.971,274928
548.187,597.896,274917
548.125,595.82,273949
548.062,593.744,273524
548.0,591.667,273044
547.938,589.59,271583
547.875,587.513,272086
547.813,585.434,270645
547.751,583.356,268666
547.688,581.277,268639
547.626,579.197,268851
547.563,577.117,267377
547.501,575.037,267696
547.439,572.956,266483
547.376,570.875,265220
547.314,568.793,266359
547.252,566.71,266092
547.189,564.628,267336
547.127,562.544,265142
547.064,560.461,266203
547.002,558.376,265199
546.94,556.292,265551
546.877,554.206,264491
546.815,552.121,264009
546.753,550.035,264046
546.69,547.948,264059
546.628,545.861,264069
546.565,543.773,262948
546.503,541.685,264005
546.441,539.597,262609
546.378,537.508,262642
546.316,535.418,261339
546.254,533.328,259913
546.191,531.238,259992
546.129,529.147,259648
546.067,527.056,257690
546.004,524.964,257174
545.942,522.871,257112
545.879,520.778,256949
545.817,518.685,254586
545.755,516.591,254807
545.692,514.497,254179
545.63,512.402,253352
545.568,510.307,251859
545.505,508.211,252813
545.443,506.115,252326
545.38,504.019,251501
545.318,501.922,250766
545.256,499.824,250492
545.193,497.726,250651
545.131,495.627,251085
545.069,493.528,251115
545.006,491.429,251337
544.944,489.329,251416
544.881,487.228,250303
544.819,485.127,250612
544.757,483.026,251018
544.694,480.924,251353
544.632,478.821,251864
544.57,476.718,251182
544.507,474.615,251052
544.445,472.511,251542
544.383,470.407,251874
544.32,468.302,250988
544.258,466.197,250440
544.195,464.091,249156
544.133,461.985,249784
544.071,459.878,249412
544.008,457.771,248552
543.946,455.663,247904
543.884,453.555,247350
543.821,451.446,247306
543.759,449.337,245537
543.696,447.227,245471
543.634,445.117,244044
543.572,443.006,243126
543.509,440.895,242535
543.447,438.784,242871
543.385,436.671,242113
543.322,434.559,241742
543.26,432.446,241303
543.198,430.332,241746
543.135,428.218,241862
543.073,426.104,241228
543.01,423.989,241343
542.948,421.873,241061
542.886,419.757,241817
542.823,417.641,242089
542.761,415.524,242025
542.699,413.407,242415
542.636,411.289,242154
542.574,409.17,241547
542.511,407.051,241570
542.449,404.932,241899
542.387,402.812,241728
542.324,400.692,240899
542.262,398.571,241520
542.2,396.45,240392
542.137,394.328,239955
542.075,392.205,240024
542.012,390.083,238773
541.95,387.959,238240
541.888,385.836,237338
541.825,383.711,235601
541.763,381.587,236040
541.701,379.461,235591
541.638,377.336,234983
541.576,375.209,233656
541.514,373.083,233771
541.451,370.955,233798
541.389,368.828,232826
541.326,366.7,233119
541.264,364.571,232704
541.202,362.442,232928
541.139,360.312,232876
541.077,358.182,232388
541.015,356.051,232577
540.952,353.92,232918
540.89,351.789,231832
540.827,349.657,231552
540.765,347.524,230309
540.703,345.391,230022
540.64,343.257,228429
540.578,341.123,226583
540.516,338.989,225470
540.453,336.854,225095
540.391,334.718,223066
540.328,332.582,221845
540.266,330.445,220087
540.204,328.308,218658
540.141,326.171,219085
540.079,324.033,217303
540.017,321.894,217693
539.954,319.755,217250
539.892,317.616,217575
539.83,315.476,217167
539.767,313.335,218808
539.705,311.194,218569
539.642,309.053,219434
539.58,306.911,219069
539.518,304.768,219586
539.455,302.625,218721
539.393,300.482,217235
539.331,298.338,215016
539.268,296.194,212646
539.206,294.049,208645
539.143,291.903,206058
539.081,289.757,202152
539.019,287.611,198604
538.956,285.464,196838
538.894,283.316,196294
538.832,281.169,194471
538.769,279.02,194616
538.707,276.871,195533
538.644,274.722,195922
538.582,272.572,191170
538.52,270.421,182016
538.457,268.271,169235
538.395,266.119,152117
538.333,263.967,134124
538.27,261.815,116517
538.208,259.662,102425
538.146,257.508,90243
538.083,255.355,82013
538.021,253.2,76239
537.958,251.045,72400
537.896,248.89,69697
537.834,246.734,68132
537.771,244.578,67132
537.709,242.421,66357
537.647,240.263,65774
537.584,238.105,65597
537.522,235.947,65411
537.459,233.788,64915
537.397,231.629,64788
537.335,229.469,64826
537.272,227.308,64598
537.21,225.147,64477
537.148,222.986,64452
537.085,220.824,64353
537.023,218.662,64411
536.96,216.499,64312
536.898,214.335,64310
536.836,212.171,64174
536.773,210.007,64249
536.711,207.842,64308
553.364,768.549,313728
553.301,766.512,314782
553.239,764.475,314927
553.177,762.437,314220
553.114,760.398,314047
553.052,758.359,313851
552.99,756.32,313778
552.927,754.28,313250
552.865,752.24,311174
552.802,750.199,312869
552.74,748.158,312621
552.678,746.116,310956
552.615,744.074,311861
552.553,742.032,311318
552.491,739.989,310839
552.428,737.945,309578
552.366,735.901,309710
552.304,733.857,308849
552.241,731.812,308071
552.179,729.766,308368
552.116,727.721,308321
552.054,725.674,307365
551.992,723.628,306300
551.929,721.58,307404
551.867,719.533,307987
551.805,717.485,307165
551.742,715.436,307772
551.68,713.387,308628
551.617,711.337,308230
551.555,709.287,307697
551.493,707.237,307286
551.43,705.186,305826
551.368,703.135,307255
551.306,701.083,307847
551.243,699.031,307705
551.181,696.978,306820
551.119,694.925,306372
551.056,692.871,306277
550.994,690.817,306447
550.931,688.762,306522
550.869,686.707,305806
550.807,684.651,303962
550.744,682.595,304230
550.682,680.539,303931
550.62,678.482,304057
550.557,676.425,302676
550.495,674.367,302728
550.432,672.308,302762
550.37,670.25,302114
550.308,668.19,299544
550.245,666.131,300031
550.183,664.07,299140
550.121,662.01,299249
550.058,659.948,299201
549.996,657.887,298891
549.933,655.825,297282
549.871,653.762,298327
549.809,651.699,297813
549.746,649.636,298115
549.684,647.572,297094
549.622,645.507,296987
549.559,643.442,297173
549.497,641.377,297078
549.435,639.311,296436
549.372,637.245,297470
549.31,635.178,297345
549.247,633.111,297355
549.185,631.043,297197
549.123,628.975,297271
549.06,626.906,296685
548.998,624.837,295973
548.936,622.768,296242
548.873,620.698,296867
548.811,618.627,296267
548.748,616.556,295056
548.686,614.485,294886
548.624,612.413,294415
548.561,610.34,292943
548.499,608.267,292329
548.437,606.194,291607
548.374,604.12,291213
548.312,602.046,290270
548.249,599.971,288948
548.187,597.896,289172
548.125,595.82,287478
548.062,593.744,287249
548.0,591.667,286115
547.938,589.59,285231
547.875,587.513,284380
547.813,585.434,283955
547.751,583.356,283082
547.688,581.277,282022
547.626,579.197,282530
547.563,577.117,281730
547.501,575.037,280916
547.439,572.956,280491
547.376,570.875,279594
547.314,568.793,279125
547.252,566.71,280063
547.189,564.628,278955
547.127,562.544,278901
547.064,560.461,279177
547.002,558.376,279078
546.94,556.292,278769
546.877,554.206,278325
546.815,552.121,278880
546.753,550.035,278878
546.69,547.948,277152
546.628,545.861,277999
546.565,543.773,275888
546.503,541.685,276087
546.441,539.597,275148
546.378,537.508,274662
546.316,535.418,274207
546.254,533.328,272952
546.191,531.238,272418
546.129,529.147,271675
546.067,527.056,271732
546.004,524.964,271322
545.942,522.871,269821
545.879,520.778,268807
545.817,518.685,267783
545.755,516.591,266535
545.692,514.497,265867
545.63,512.402,265144
545.568,510.307,265848
545.505,508.211,265001
545.443,506.115,263714
545.38,504.019,263208
545.318,501.922,263963
545.256,499.824,264222
545.193,497.726,263845
545.131,495.627,262936
545.069,493.528,263609
545.006,491.429,264040
544.944,489.329,264450
544.881,487.228,263304
544.819,485.127,264112
544.757,483.026,263932
544.694,480.924,263789
544.632,478.821,263418
544.57,476.718,262883
544.507,474.615,264364
544.445,472.511,263910
544.383,470.407,263599
544.32,468.302,264223
544.258,466.197,262610
544.195,464.091,262611
544.133,461.985,262061
544.071,459.878,262149
544.008,457.771,259611
543.946,455.663,260189
543.884,453.555,258925
543.821,451.446,258091
543.759,449.337,257052
543.696,447.227,258033
543.634,445.117,255610
543.572,443.006,256022
543.509,440.895,254775
543.447,438.784,253871
543.385,436.671,253982
543.322,434.559,254430
543.26,432.446,254443
543.198,430.332,253611
543.135,428.218,252935
543.073,426.104,252593
543.01,423.989,253111
542.948,421.873,252189
542.886,419.757,253623
542.823,417.641,254113
542.761,415.524,254460
542.699,413.407,254844
542.636,411.289,254114
542.574,409.17,254244
542.511,407.051,253587
542.449,404.932,253888
542.387,402.812,253321
542.324,400.692,253086
542.262,398.571,252283
542.2,396.45,253789
542.137,394.328,251243
542.075,392.205,250730
542.012,390.083,249791
541.95,387.959,249321
541.888,385.836,248434
541.825,383.711,248308
541.763,381.587,247802
541.701,379.461,246167
541.638,377.336,245654
541.576,375.209,245609
541.514,373.083,245092
541.451,370.955,244851
541.389,368.828,243974
541.326,366.7,243901
541.264,364.571,243040
541.202,362.442,245029
541.139,360.312,245090
541.077,358.182,243957
541.015,356.051,243828
540.952,353.92,243639
540.89,351.789,243040
540.827,349.657,242712
540.765,347.524,242731
540.703,345.391,239905
540.64,343.257,239321
540.578,341.123,238997
540.516,338.989,236711
540.453,336.854,234762
540.391,334.718,234059
540.328,332.582,232921
540.266,330.445,231936
540.204,328.308,229314
540.141,326.171,228399
540.079,324.033,228244
540.017,321.894,227943
539.954,319.755,227830
539.892,317.616,227507
539.83,315.476,228608
539.767,313.335,228175
539.705,311.194,228416
539.642,309.053,229401
539.58,306.911,230396
539.518,304.768,231086
539.455,302.625,228368
539.393,300.482,227449
539.331,298.338,225097
539.268,296.194,222118
539.206,294.049,218902
539.143,291.903,215053
539.081,289.757,211773
539.019,287.611,208701
538.956,285.464,205152
538.894,283.316,203422
538.832,281.169,203026
538.769,279.02,204530
538.707,276.871,203821
538.644,274.722,204368
538.582,272.572,199572
538.52,270.421,190710
538.457,268.271,175632
538.395,266.119,157935
538.333,263.967,139140
538.27,261.815,119906
538.208,259.662,104875
538.146,257.508,92522
538.083,255.355,83370
538.021,253.2,77085
537.958,251.045,73017
537.896,248.89,70474
537.834,246.734,68615
537.771,244.578,67420
537.709,242.421,66665
537.647,240.263,65954
537.584,238.105,65877
537.522,235.947,65520
537.459,233.788,65285
537.397,231.629,65161
537.335,229.469,64940
537.272,227.308,64959
537.21,225.147,64735
537.148,222.986,64569
537.085,220.824,64504
537.023,218.662,64388
536.96,216.499,64556
536.898,214.335,64443
536.836,212.171,64437
536.773,210.007,64504
536.711,207.842,64298
553.364,768.549,317286
553.301,766.512,317278
553.239,764.475,318761
553.177,762.437,317848
553.114,760.398,317876
553.052,758.359,316720
552.99,756.32,317636
552.927,754.28,317398
552.865,752.24,315601
552.802,750.199,314588
552.74,748.158,315852
552.678,746.116,313608
552.615,744.074,314874
552.553,742.032,313953
552.491,739.989,314458
552.428,737.945,313005
552.366,735.901,312130
552.304,733.857,313167
552.241,731.812,312700
552.179,729.766,311421
552.116,727.721,311800
552.054,725.674,311832
551.992,723.628,310220
551.929,721.58,311134
551.867,719.533,311194
551.805,717.485,311407
551.742,715.436,311243
551.68,713.387,311931
551.617,711.337,311248
551.555,709.287,311806
551.493,707.237,310358
551.43,705.186,310262
551.368,703.135,311026
551.306,701.083,311482
551.243,699.031,310454
551.181,696.978,310242
551.119,694.925,310437
551.056,692.871,309558
550.994,690.817,309139
550.931,688.762,308257
550.869,686.707,309340
550.807,684.651,308516
550.744,682.595,307828
550.682,680.539,307678
550.62,678.482,307623
550.557,676.425,307493
550.495,674.367,305093
550.432,672.308,305560
550.37,670.25,305325
550.308,668.19,304586
550.245,666.131,302974
550.183,664.07,302467
550.121,662.01,302285
550.058,659.948,302508
549.996,657.887,301852
549.933,655.825,300793
549.871,653.762,301526
549.809,651.699,300705
549.746,649.636,301756
549.684,647.572,300238
549.622,645.507,300770
549.559,643.442,301352
549.497,641.377,299991
549.435,639.311,299595
549.372,637.245,301368
549.31,635.178,300251
549.247,633.111,301503
549.185,631.043,301235
549.123,628.975,300535
549.06,626.906,300076
548.998,624.837,300480
548.936,622.768,299998
548.873,620.698,300982
548.811,618.627,298613
548.748,616.556,298235
548.686,614.485,298777
548.624,612.413,297217
548.561,610.34,297190
548.499,608.267,295774
548.437,606.194,295151
548.374,604.12,295799
548.312,602.046,293514
548.249,599.971,293092
548.187,597.896,291708
548.125,595.82,290886
548.062,593.744,290452
548.0,591.667,289736
547.938,589.59,289097
547.875,587.513,287733
547.813,585.434,287274
547.751,583.356,285666
547.688,581.277,284920
547.626,579.197,284965
547.563,577.117,284495
547.501,575.037,283500
547.439,572.956,282941
547.376,570.875,281597
547.314,568.793,282224
547.252,566.71,282985
547.189,564.628,282213
547.127,562.544,282512
547.064,560.461,282288
547.002,558.376,281988
546.94,556.292,281718
546.877,554.206,281446
546.815,552.121,280612
546.753,550.035,280723
546.69,547.948,279764
546.628,545.861,280691
546.565,543.773,280022
546.503,541.685,278736
546.441,539.597,278579
546.378,537.508,279030
546.316,535.418,277046
546.254,533.328,276783
546.191,531.238,276516
546.129,529.147,274773
546.067,527.056,274651
546.004,524.964,273208
545.942,522.871,272622
545.879,520.778,271372
545.817,518.685,270286
545.755,516.591,270852
545.692,514.497,269825
545.63,512.402,269167
545.568,510.307,267615
545.505,508.211,266782
545.443,506.115,267304
545.38,504.019,266498
545.318,501.922,266324
545.256,499.824,267709
545.193,497.726,266869
545.131,495.627,265334
545.069,493.528,266199
545.006,491.429,266447
544.944,489.329,266183
544.881,487.228,266222
544.819,485.127,265813
544.757,483.026,266932
544.694,480.924,267545
544.632,478.821,266162
544.57,476.718,267118
544.507,474.615,265816
544.445,472.511,266051
544.383,470.407,266388
544.32,468.302,265616
544.258,466.197,265352
544.195,464.091,265168
544.133,461.985,264846
544.071,459.878,263841
544.008,457.771,262916
543.946,455.663,263142
543.884,453.555,262350
543.821,451.446,261375
543.759,449.337,260467
543.696,447.227,259812
543.634,445.117,259073
543.572,443.006,257429
543.509,440.895,258462
543.447,438.784,257366
543.385,436.671,257087
543.322,434.559,257248
543.26,432.446,256201
543.198,430.332,256120
543.135,428.218,255725
543.073,426.104,256199
543.01,423.989,256261
542.948,421.873,256037
542.886,419.757,256143
542.823,417.641,256001
542.761,415.524,256228
542.699,413.407,257211
542.636,411.289,256825
542.574,409.17,257228
542.511,407.051,256092
542.449,404.932,256384
542.387,402.812,256581
542.324,400.692,255092
542.262,398.571,255391
542.2,396.45,254900
542.137,394.328,254514
542.075,392.205,253268
542.012,390.083,252631
541.95,387.959,251428
541.888,385.836,251168
541.825,383.711,250463
541.763,381.587,249674
541.701,379.461,250036
541.638,377.336,249069
541.576,375.209,246920
541.514,373.083,246249
541.451,370.955,247376
541.389,368.828,247546
541.326,366.7,246339
541.264,364.571,247283
541.202,362.442,247167
541.139,360.312,247086
541.077,358.182,247251
541.015,356.051,246269
540.952,353.92,246525
540.89,351.789,245751
540.827,349.657,245196
540.765,347.524,244928
540.703,345.391,243086
540.64,343.257,242311
540.578,341.123,240403
540.516,338.989,238590
540.453,336.854,238045
540.391,334.718,236622
540.328,332.582,234874
540.266,330.445,232759
540.204,328.308,232151
540.141,326.171,231255
540.079,324.033,230888
540.017,321.894,229207
539.954,319.755,230171
539.892,317.616,229962
539.83,315.476,229724
539.767,313.335,231044
539.705,311.194,231296
539.642,309.053,231004
539.58,306.911,230800
539.518,304.768,231806
539.455,302.625,230941
539.393,300.482,230237
539.331,298.338,227969
539.268,296.194,224678
539.206,294.049,220908
539.143,291.903,217491
539.081,289.757,213846
539.019,287.611,210707
538.956,285.464,207490
538.894,283.316,205716
538.832,281.169,205725
538.769,279.02,205574
538.707,276.871,206553
538.644,274.722,205809
538.582,272.572,201902
538.52,270.421,192179
538.457,268.271,177379
538.395,266.119,159788
538.333,263.967,139834
538.27,261.815,121341
538.208,259.662,105089
538.146,257.508,93423
538.083,255.355,83941
538.021,253.2,77516
537.958,251.045,73094
537.896,248.89,70564
537.834,246.734,68645
537.771,244.578,67707
537.709,242.421,66840
537.647,240.263,66267
537.584,238.105,65918
537.522,235.947,65506
537.459,233.788,65281
537.397,231.629,65235
537.335,229.469,65048
537.272,227.308,64896
537.21,225.147,64825
537.148,222.986,64677
537.085,220.824,64570
537.023,218.662,64483
536.96,216.499,64601
536.898,214.335,64765
536.836,212.171,64655
536.773,210.007,64490
536.711,207.842,64542
553.364,768.549,308814
553.301,766.512,309036
553.239,764.475,309832
553.177,762.437,309635
553.114,760.398,308582
553.052,758.359,309210
552.99,756.32,308962
552.927,754.28,308424
552.865,752.24,307561
552.802,750.199,308283
552.74,748.158,308463
552.678,746.116,306984
552.615,744.074,305623
552.553,742.032,305979
552.491,739.989,305529
552.428,737.945,305531
552.366,735.901,303811
552.304,733.857,304250
552.241,731.812,304092
552.179,729.766,304551
552.116,727.721,303753
552.054,725.674,308224
551.992,723.628,303875
551.929,721.58,304351
551.867,719.533,302822
551.805,717.485,302766
551.742,715.436,303076
551.68,713.387,302713
551.617,711.337,303455
551.555,709.287,302954
551.493,707.237,303057
551.43,705.186,303152
551.368,703.135,304070
551.306,701.083,303509
551.243,699.031,303211
551.181,696.978,302128
551.119,694.925,301430
551.056,692.871,301998
550.994,690.817,301558
550.931,688.762,301105
550.869,686.707,301288
550.807,684.651,300396
550.744,682.595,300698
550.682,680.539,300147
550.62,678.482,299301
550.557,676.425,299128
550.495,674.367,297836
550.432,672.308,297874
550.37,670.25,296892
550.308,668.19,295345
550.245,666.131,295803
550.183,664.07,294615
550.121,662.01,293792
550.058,659.948,295650
549.996,657.887,293836
549.933,655.825,293754
549.871,653.762,293764
549.809,651.699,292515
549.746,649.636,294552
549.684,647.572,293412
549.622,645.507,292381
549.559,643.442,293063
549.497,641.377,294079
549.435,639.311,293255
549.372,637.245,293156
549.31,635.178,292824
549.247,633.111,294437
549.185,631.043,292943
549.123,628.975,292410
549.06,626.906,292739
548.998,624.837,292573
548.936,622.768,292049
548.873,620.698,291286
548.811,618.627,292335
548.748,616.556,291709
548.686,614.485,290533
548.624,612.413,289510
548.561,610.34,289844
548.499,608.267,288729
548.437,606.194,288635
548.374,604.12,286450
548.312,602.046,286606
548.249,599.971,284558
548.187,597.896,285213
548.125,595.82,283601
548.062,593.744,281900
548.0,591.667,281829
547.938,589.59,280967
547.875,587.513,280013
547.813,585.434,278760
547.751,583.356,280112
547.688,581.277,277540
547.626,579.197,277857
547.563,577.117,275961
547.501,575.037,277401
547.439,572.956,276285
547.376,570.875,276681
547.314,568.793,274494
547.252,566.71,275244
547.189,564.628,274561
547.127,562.544,274179
547.064,560.461,274916
547.002,558.376,275040
546.94,556.292,274522
546.877,554.206,273325
546.815,552.121,273909
546.753,550.035,273716
546.69,547.948,273732
546.628,545.861,273609
546.565,543.773,272438
546.503,541.685,272420
546.441,539.597,270861
546.378,537.508,272270
546.316,535.418,270735
546.254,533.328,270140
546.191,531.238,268702
546.129,529.147,268566
546.067,527.056,268262
546.004,524.964,266342
545.942,522.871,266052
545.879,520.778,265147
545.817,518.685,263913
545.755,516.591,263478
545.692,514.497,262678
545.63,512.402,261860
545.568,510.307,261750
545.505,508.211,260443
545.443,506.115,260202
545.38,504.019,259666
545.318,501.922,260419
545.256,499.824,260456
545.193,497.726,260430
545.131,495.627,260204
545.069,493.528,259760
545.006,491.429,260495
544.944,489.329,259423
544.881,487.228,258826
544.819,485.127,260003
544.757,483.026,259736
544.694,480.924,261206
544.632,478.821,260675
544.57,476.718,259653
544.507,474.615,260967
544.445,472.511,260331
544.383,470.407,259771
544.32,468.302,259645
544.258,466.197,259115
544.195,464.091,258752
544.133,461.985,257995
544.071,459.878,258369
544.008,457.771,256098
543.946,455.663,255717
543.884,453.555,255746
543.821,451.446,255720
543.759,449.337,255449
543.696,447.227,253222
543.634,445.117,251821
543.572,443.006,252237
543.509,440.895,251244
543.447,438.784,250972
543.385,436.671,249939
543.322,434.559,249976
543.26,432.446,250176
543.198,430.332,249399
543.135,428.218,249609
543.073,426.104,248714
543.01,423.989,249371
542.948,421.873,250007
542.886,419.757,250344
542.823,417.641,250096
542.761,415.524,250406
542.699,413.407,250650
542.636,411.289,249819
542.574,409.17,249946
542.511,407.051,250300
542.449,404.932,249761
542.387,402.812,250665
542.324,400.692,249234
542.262,398.571,247571
542.2,396.45,248193
542.137,394.328,247658
542.075,392.205,247675
542.012,390.083,247332
541.95,387.959,246567
541.888,385.836,245050
541.825,383.711,243756
541.763,381.587,243918
541.701,379.461,243179
541.638,377.336,242930
541.576,375.209,242024
541.514,373.083,241184
541.451,370.955,241692
541.389,368.828,240395
541.326,366.7,240855
541.264,364.571,240787
541.202,362.442,241123
541.139,360.312,241121
541.077,358.182,241269
541.015,356.051,241076
540.952,353.92,240114
540.89,351.789,239565
540.827,349.657,239592
540.765,347.524,237805
540.703,345.391,237196
540.64,343.257,236413
540.578,341.123,234830
540.516,338.989,233226
540.453,336.854,231722
540.391,334.718,230544
540.328,332.582,228990
540.266,330.445,227501
540.204,328.308,226441
540.141,326.171,226026
540.079,324.033,224526
540.017,321.894,224522
539.954,319.755,224177
539.892,317.616,224549
539.83,315.476,225504
539.767,313.335,225383
539.705,311.194,226111
539.642,309.053,226705
539.58,306.911,226609
539.518,304.768,227298
539.455,302.625,225213
539.393,300.482,224132
539.331,298.338,221381
539.268,296.194,219557
539.206,294.049,215270
539.143,291.903,211453
539.081,289.757,208672
539.019,287.611,205801
538.956,285.464,204294
538.894,283.316,201889
538.832,281.169,201177
538.769,279.02,201748
538.707,276.871,202042
538.644,274.722,201748
538.582,272.572,198198
538.52,270.421,188040
538.457,268.271,173679
538.395,266.119,156178
538.333,263.967,137206
538.27,261.815,119509
538.208,259.662,103882
538.146,257.508,91928
538.083,255.355,82889
538.021,253.2,76917
537.958,251.045,72911
537.896,248.89,70540
537.834,246.734,68396
537.771,244.578,67230
537.709,242.421,66713
537.647,240.263,66196
537.584,238.105,65827
537.522,235.947,65396
537.459,233.788,65349
537.397,231.629,64906
537.335,229.469,65024
537.272,227.308,64697
537.21,225.147,64694
537.148,222.986,64663
537.085,220.824,64487
537.023,218.662,64526
536.96,216.499,64431
536.898,214.335,64298
536.836,212.171,64399
536.773,210.007,64297
536.711,207.842,64329
553.364,768.549,306913
553.301,766.512,307684
553.239,764.475,307491
553.177,762.437,307052
553.114,760.398,306907
553.052,758.359,307320
552.99,756.32,306775
552.927,754.28,306406
552.865,752.24,305020
552.802,750.199,305465
552.74,748.158,304030
552.678,746.116,303352
552.615,744.074,304319
552.553,742.032,303983
552.491,739.989,304236
552.428,737.945,303593
552.366,735.901,302906
552.304,733.857,301705
552.241,731.812,302495
552.179,729.766,302513
552.116,727.721,302541
552.054,725.674,300696
551.992,723.628,300484
551.929,721.58,301222
551.867,719.533,301818
551.805,717.485,301238
551.742,715.436,300484
551.68,713.387,300570
551.617,711.337,300707
551.555,709.287,300290
551.493,707.237,300180
551.43,705.186,300973
551.368,703.135,302481
551.306,701.083,300872
551.243,699.031,300914
551.181,696.978,301610
551.119,694.925,299944
551.056,692.871,301059
550.994,690.817,299589
550.931,688.762,299334
550.869,686.707,299623
550.807,684.651,297878
550.744,682.595,299863
550.682,680.539,297945
550.62,678.482,296422
550.557,676.425,296268
550.495,674.367,295189
550.432,672.308,296829
550.37,670.25,295669
550.308,668.19,295013
550.245,666.131,293810
550.183,664.07,292842
550.121,662.01,293174
550.058,659.948,293898
549.996,657.887,291995
549.933,655.825,291448
549.871,653.762,292260
549.809,651.699,290938
549.746,649.636,291684
549.684,647.572,290096
549.622,645.507,290982
549.559,643.442,290738
549.497,641.377,290909
549.435,639.311,291076
549.372,637.245,291153
549.31,635.178,290400
549.247,633.111,292745
549.185,631.043,291642
549.123,628.975,290529
549.06,626.906,291415
548.998,624.837,291484
548.936,622.768,290446
548.873,620.698,289738
548.811,618.627,289252
548.748,616.556,290031
548.686,614.485,288813
548.624,612.413,287824
548.561,610.34,287071
548.499,608.267,287380
548.437,606.194,285562
548.374,604.12,285933
548.312,602.046,284369
548.249,599.971,283496
548.187,597.896,283060
548.125,595.82,282607
548.062,593.744,280153
548.0,591.667,279640
547.938,589.59,279375
547.875,587.513,278816
547.813,585.434,277451
547.751,583.356,277281
547.688,581.277,276350
547.626,579.197,275479
547.563,577.117,274817
547.501,575.037,274642
547.439,572.956,275433
547.376,570.875,273576
547.314,568.793,274604
547.252,566.71,272580
547.189,564.628,273497
547.127,562.544,272654
547.064,560.461,273014
547.002,558.376,272339
546.94,556.292,273380
546.877,554.206,271966
546.815,552.121,272566
546.753,550.035,272128
546.69,547.948,271059
546.628,545.861,271584
546.565,543.773,271092
546.503,541.685,270516
546.441,539.597,269688
546.378,537.508,268788
546.316,535.418,268464
546.254,533.328,268084
546.191,531.238,267276
546.129,529.147,266732
546.067,527.056,266692
546.004,524.964,264609
545.942,522.871,263668
545.879,520.778,263701
545.817,518.685,261499
545.755,516.591,262364
545.692,514.497,261361
545.63,512.402,260332
545.568,510.307,259396
545.505,508.211,259236
545.443,506.115,259339
545.38,504.019,257993
545.318,501.922,258237
545.256,499.824,258187
545.193,497.726,257690
545.131,495.627,258436
545.069,493.528,258094
545.006,491.429,257751
544.944,489.329,257344
544.881,487.228,257408
544.819,485.127,257928
544.757,483.026,258884
544.694,480.924,257475
544.632,478.821,257483
544.57,476.718,258322
544.507,474.615,257040
544.445,472.511,258753
544.383,470.407,258092
544.32,468.302,258129
544.258,466.197,257206
544.195,464.091,256257
544.133,461.985,256317
544.071,459.878,256279
544.008,457.771,255192
543.946,455.663,255007
543.884,453.555,253553
543.821,451.446,253294
543.759,449.337,252083
543.696,447.227,251255
543.634,445.117,251367
543.572,443.006,250064
543.509,440.895,249653
543.447,438.784,250341
543.385,436.671,248945
543.322,434.559,248043
543.26,432.446,247653
543.198,430.332,247992
543.135,428.218,247617
543.073,426.104,248054
543.01,423.989,247554
542.948,421.873,247843
542.886,419.757,248787
542.823,417.641,248031
542.761,415.524,248440
542.699,413.407,248342
542.636,411.289,248974
542.574,409.17,249530
542.511,407.051,249182
542.449,404.932,248791
542.387,402.812,249255
542.324,400.692,247149
542.262,398.571,247838
542.2,396.45,247497
542.137,394.328,246419
542.075,392.205,246100
542.012,390.083,244842
541.95,387.959,244103
541.888,385.836,243168
541.825,383.711,242633
541.763,381.587,242097
541.701,379.461,241964
541.638,377.336,240747
541.576,375.209,240268
541.514,373.083,240717
541.451,370.955,239150
541.389,368.828,240695
541.326,366.7,239895
541.264,364.571,239580
541.202,362.442,239606
541.139,360.312,239811
541.077,358.182,239075
541.015,356.051,238457
540.952,353.92,239018
540.89,351.789,238496
540.827,349.657,237170
540.765,347.524,236581
540.703,345.391,235361
540.64,343.257,234356
540.578,341.123,233553
540.516,338.989,231440
540.453,336.854,230559
540.391,334.718,229767
540.328,332.582,227622
540.266,330.445,226747
540.204,328.308,225917
540.141,326.171,224729
540.079,324.033,223164
540.017,321.894,224242
539.954,319.755,222714
539.892,317.616,222937
539.83,315.476,222957
539.767,313.335,224116
539.705,311.194,224315
539.642,309.053,224537
539.58,306.911,224258
539.518,304.768,225521
539.455,302.625,224737
539.393,300.482,222046
539.331,298.338,220734
539.268,296.194,218341
539.206,294.049,214846
539.143,291.903,211283
539.081,289.757,207447
539.019,287.611,204505
538.956,285.464,202194
538.894,283.316,199463
538.832,281.169,198952
538.769,279.02,200618
538.707,276.871,201366
538.644,274.722,199848
538.582,272.572,195713
538.52,270.421,186754
538.457,268.271,172589
538.395,266.119,155145
538.333,263.967,136855
538.27,261.815,118990
538.208,259.662,104042
538.146,257.508,91934
538.083,255.355,82702
538.021,253.2,76825
537.958,251.045,72910
537.896,248.89,70318
537.834,246.734,68627
537.771,244.578,67531
537.709,242.421,66475
537.647,240.263,66134
537.584,238.105,65735
537.522,235.947,65334
537.459,233.788,65214
537.397,231.629,65100
537.335,229.469,64981
537.272,227.308,64702
537.21,225.147,64650
537.148,222.986,64654
537.085,220.824,64557
537.023,218.662,64365
536.96,216.499,64384
536.898,214.335,64368
536.836,212.171,64436
536.773,210.007,64311
536.711,207.842,64336
536.661,206.11,64316