File: tomke/20240809/raw_data/Si_onTiO2_40mA_30mW_30sec_5acc_545nm.txt
Wavelength(nm), Raman shift(cm^-1), Intensity(counts)
553.364,768.549,75365
553.301,766.512,75515
553.239,764.475,75220
553.177,762.437,75523
553.114,760.398,75335
553.052,758.359,75255
552.99,756.32,75525
552.927,754.28,75711
552.865,752.24,75378
552.802,750.199,75161
552.74,748.158,75224
552.678,746.116,75380
552.615,744.074,75218
552.553,742.032,75335
552.491,739.989,75313
552.428,737.945,75403
552.366,735.901,75055
552.304,733.857,74921
552.241,731.812,75104
552.179,729.766,75116
552.116,727.721,75346
552.054,725.674,75354
551.992,723.628,75138
551.929,721.58,74979
551.867,719.533,75466
551.805,717.485,75107
551.742,715.436,75480
551.68,713.387,75258
551.617,711.337,75341
551.555,709.287,75195
551.493,707.237,75454
551.43,705.186,75153
551.368,703.135,75221
551.306,701.083,75002
551.243,699.031,75053
551.181,696.978,75289
551.119,694.925,75043
551.056,692.871,75001
550.994,690.817,75229
550.931,688.762,75038
550.869,686.707,75024
550.807,684.651,74976
550.744,682.595,75097
550.682,680.539,74891
550.62,678.482,75045
550.557,676.425,75005
550.495,674.367,75217
550.432,672.308,74868
550.37,670.25,75011
550.308,668.19,75050
550.245,666.131,75045
550.183,664.07,75124
550.121,662.01,75081
550.058,659.948,74973
549.996,657.887,74910
549.933,655.825,75077
549.871,653.762,75026
549.809,651.699,74740
549.746,649.636,75057
549.684,647.572,74701
549.622,645.507,75030
549.559,643.442,74832
549.497,641.377,75011
549.435,639.311,74721
549.372,637.245,74728
549.31,635.178,74926
549.247,633.111,75273
549.185,631.043,75011
549.123,628.975,75139
549.06,626.906,75014
548.998,624.837,74879
548.936,622.768,74884
548.873,620.698,74651
548.811,618.627,75043
548.748,616.556,74959
548.686,614.485,75047
548.624,612.413,75050
548.561,610.34,74827
548.499,608.267,74419
548.437,606.194,74626
548.374,604.12,74727
548.312,602.046,74862
548.249,599.971,74542
548.187,597.896,74548
548.125,595.82,74221
548.062,593.744,74223
548.0,591.667,74145
547.938,589.59,73603
547.875,587.513,74195
547.813,585.434,74134
547.751,583.356,73910
547.688,581.277,73925
547.626,579.197,73737
547.563,577.117,73886
547.501,575.037,73448
547.439,572.956,73610
547.376,570.875,73483
547.314,568.793,73502
547.252,566.71,73784
547.189,564.628,73769
547.127,562.544,73328
547.064,560.461,73337
547.002,558.376,73554
546.94,556.292,73339
546.877,554.206,72976
546.815,552.121,73342
546.753,550.035,73431
546.69,547.948,73011
546.628,545.861,73390
546.565,543.773,73024
546.503,541.685,73489
546.441,539.597,73445
546.378,537.508,73567
546.316,535.418,73357
546.254,533.328,73717
546.191,531.238,73233
546.129,529.147,73465
546.067,527.056,73693
546.004,524.964,73537
545.942,522.871,73618
545.879,520.778,73913
545.817,518.685,74272
545.755,516.591,74878
545.692,514.497,75389
545.63,512.402,76961
545.568,510.307,78526
545.505,508.211,81662
545.443,506.115,85035
545.38,504.019,87589
545.318,501.922,87423
545.256,499.824,85197
545.193,497.726,81685
545.131,495.627,79287
545.069,493.528,77374
545.006,491.429,76210
544.944,489.329,75358
544.881,487.228,74559
544.819,485.127,74400
544.757,483.026,73810
544.694,480.924,73812
544.632,478.821,73509
544.57,476.718,73176
544.507,474.615,73349
544.445,472.511,72991
544.383,470.407,73003
544.32,468.302,72737
544.258,466.197,72832
544.195,464.091,72758
544.133,461.985,72672
544.071,459.878,72451
544.008,457.771,72512
543.946,455.663,72210
543.884,453.555,72289
543.821,451.446,72316
543.759,449.337,71980
543.696,447.227,72152
543.634,445.117,71917
543.572,443.006,71987
543.509,440.895,71681
543.447,438.784,72035
543.385,436.671,71845
543.322,434.559,72019
543.26,432.446,71984
543.198,430.332,71793
543.135,428.218,71878
543.073,426.104,72067
543.01,423.989,71924
542.948,421.873,72037
542.886,419.757,72202
542.823,417.641,72027
542.761,415.524,72067
542.699,413.407,72539
542.636,411.289,72072
542.574,409.17,72177
542.511,407.051,71960
542.449,404.932,72258
542.387,402.812,72074
542.324,400.692,72228
542.262,398.571,72213
542.2,396.45,71896
542.137,394.328,71754
542.075,392.205,71782
542.012,390.083,71940
541.95,387.959,71969
541.888,385.836,71699
541.825,383.711,72106
541.763,381.587,71803
541.701,379.461,71702
541.638,377.336,71625
541.576,375.209,71585
541.514,373.083,71257
541.451,370.955,71377
541.389,368.828,71574
541.326,366.7,71551
541.264,364.571,71417
541.202,362.442,71790
541.139,360.312,71646
541.077,358.182,71716
541.015,356.051,71651
540.952,353.92,71602
540.89,351.789,71559
540.827,349.657,71611
540.765,347.524,71816
540.703,345.391,71460
540.64,343.257,71535
540.578,341.123,71179
540.516,338.989,71333
540.453,336.854,71156
540.391,334.718,71009
540.328,332.582,70941
540.266,330.445,71139
540.204,328.308,71026
540.141,326.171,71022
540.079,324.033,70970
540.017,321.894,70885
539.954,319.755,70873
539.892,317.616,71062
539.83,315.476,70976
539.767,313.335,70888
539.705,311.194,71291
539.642,309.053,71233
539.58,306.911,71345
539.518,304.768,71281
539.455,302.625,71387
539.393,300.482,71492
539.331,298.338,71316
539.268,296.194,71435
539.206,294.049,71262
539.143,291.903,71033
539.081,289.757,70867
539.019,287.611,70488
538.956,285.464,70473
538.894,283.316,70399
538.832,281.169,70140
538.769,279.02,70196
538.707,276.871,69988
538.644,274.722,70218
538.582,272.572,69772
538.52,270.421,69230
538.457,268.271,67968
538.395,266.119,66664
538.333,263.967,65169
538.27,261.815,64166
538.208,259.662,63131
538.146,257.508,62309
538.083,255.355,61711
538.021,253.2,61403
537.958,251.045,61123
537.896,248.89,60857
537.834,246.734,61019
537.771,244.578,60793
537.709,242.421,60756
537.647,240.263,60701
537.584,238.105,60636
537.522,235.947,60614
537.459,233.788,60629
537.397,231.629,60615
537.335,229.469,60597
537.272,227.308,60583
537.21,225.147,60649
537.148,222.986,60634
537.085,220.824,60594
537.023,218.662,60613
536.96,216.499,60694
536.898,214.335,60557
536.836,212.171,60532
536.773,210.007,60573
536.711,207.842,60506
553.364,768.549,76491
553.301,766.512,77002
553.239,764.475,76830
553.177,762.437,76746
553.114,760.398,76916
553.052,758.359,76865
552.99,756.32,76696
552.927,754.28,77070
552.865,752.24,76621
552.802,750.199,76529
552.74,748.158,76830
552.678,746.116,76753
552.615,744.074,76508
552.553,742.032,76480
552.491,739.989,76481
552.428,737.945,76609
552.366,735.901,76553
552.304,733.857,76639
552.241,731.812,76596
552.179,729.766,76819
552.116,727.721,76538
552.054,725.674,76518
551.992,723.628,76520
551.929,721.58,76398
551.867,719.533,76532
551.805,717.485,76639
551.742,715.436,76308
551.68,713.387,76525
551.617,711.337,76634
551.555,709.287,76375
551.493,707.237,76228
551.43,705.186,76365
551.368,703.135,76634
551.306,701.083,76659
551.243,699.031,76298
551.181,696.978,76729
551.119,694.925,76725
551.056,692.871,76471
550.994,690.817,76380
550.931,688.762,76510
550.869,686.707,76393
550.807,684.651,76571
550.744,682.595,76416
550.682,680.539,76131
550.62,678.482,76367
550.557,676.425,76492
550.495,674.367,76705
550.432,672.308,76428
550.37,670.25,76354
550.308,668.19,76609
550.245,666.131,76312
550.183,664.07,76178
550.121,662.01,76398
550.058,659.948,76067
549.996,657.887,76155
549.933,655.825,75915
549.871,653.762,76215
549.809,651.699,76178
549.746,649.636,76210
549.684,647.572,76284
549.622,645.507,76392
549.559,643.442,76286
549.497,641.377,76385
549.435,639.311,76120
549.372,637.245,76307
549.31,635.178,76272
549.247,633.111,76449
549.185,631.043,76563
549.123,628.975,76335
549.06,626.906,76482
548.998,624.837,76174
548.936,622.768,76505
548.873,620.698,76249
548.811,618.627,76104
548.748,616.556,76165
548.686,614.485,76306
548.624,612.413,76346
548.561,610.34,75941
548.499,608.267,76027
548.437,606.194,75760
548.374,604.12,75802
548.312,602.046,75826
548.249,599.971,75859
548.187,597.896,75678
548.125,595.82,75510
548.062,593.744,75642
548.0,591.667,75631
547.938,589.59,75302
547.875,587.513,75206
547.813,585.434,74994
547.751,583.356,75014
547.688,581.277,75030
547.626,579.197,74620
547.563,577.117,74874
547.501,575.037,74832
547.439,572.956,74637
547.376,570.875,74603
547.314,568.793,74717
547.252,566.71,74734
547.189,564.628,74513
547.127,562.544,74610
547.064,560.461,74382
547.002,558.376,74256
546.94,556.292,74765
546.877,554.206,74431
546.815,552.121,74472
546.753,550.035,74238
546.69,547.948,74409
546.628,545.861,74432
546.565,543.773,74380
546.503,541.685,74389
546.441,539.597,74409
546.378,537.508,74116
546.316,535.418,74297
546.254,533.328,74511
546.191,531.238,74595
546.129,529.147,74589
546.067,527.056,74695
546.004,524.964,75002
545.942,522.871,74871
545.879,520.778,75182
545.817,518.685,75478
545.755,516.591,75996
545.692,514.497,76307
545.63,512.402,77796
545.568,510.307,79870
545.505,508.211,82571
545.443,506.115,85797
545.38,504.019,88342
545.318,501.922,88548
545.256,499.824,86010
545.193,497.726,83245
545.131,495.627,80880
545.069,493.528,78606
545.006,491.429,77150
544.944,489.329,76434
544.881,487.228,75701
544.819,485.127,75180
544.757,483.026,74962
544.694,480.924,74802
544.632,478.821,74378
544.57,476.718,74551
544.507,474.615,74329
544.445,472.511,74050
544.383,470.407,73900
544.32,468.302,74008
544.258,466.197,73990
544.195,464.091,73491
544.133,461.985,73747
544.071,459.878,73507
544.008,457.771,73498
543.946,455.663,73583
543.884,453.555,73301
543.821,451.446,73196
543.759,449.337,73066
543.696,447.227,73100
543.634,445.117,72878
543.572,443.006,73144
543.509,440.895,73027
543.447,438.784,72995
543.385,436.671,72565
543.322,434.559,72729
543.26,432.446,72999
543.198,430.332,72978
543.135,428.218,72683
543.073,426.104,73219
543.01,423.989,73027
542.948,421.873,73029
542.886,419.757,72920
542.823,417.641,73031
542.761,415.524,73089
542.699,413.407,73394
542.636,411.289,73466
542.574,409.17,72969
542.511,407.051,73316
542.449,404.932,73214
542.387,402.812,73085
542.324,400.692,72717
542.262,398.571,73238
542.2,396.45,73029
542.137,394.328,73024
542.075,392.205,72834
542.012,390.083,73123
541.95,387.959,72762
541.888,385.836,72663
541.825,383.711,72723
541.763,381.587,72871
541.701,379.461,72673
541.638,377.336,72810
541.576,375.209,72357
541.514,373.083,72544
541.451,370.955,72584
541.389,368.828,72159
541.326,366.7,72299
541.264,364.571,72547
541.202,362.442,72701
541.139,360.312,72561
541.077,358.182,72631
541.015,356.051,72576
540.952,353.92,72255
540.89,351.789,72292
540.827,349.657,72608
540.765,347.524,72444
540.703,345.391,72192
540.64,343.257,72245
540.578,341.123,72218
540.516,338.989,72254
540.453,336.854,71953
540.391,334.718,71922
540.328,332.582,72106
540.266,330.445,71785
540.204,328.308,71707
540.141,326.171,71783
540.079,324.033,71631
540.017,321.894,71751
539.954,319.755,71748
539.892,317.616,72026
539.83,315.476,71739
539.767,313.335,72011
539.705,311.194,72069
539.642,309.053,72142
539.58,306.911,72315
539.518,304.768,72227
539.455,302.625,72222
539.393,300.482,72073
539.331,298.338,72401
539.268,296.194,72200
539.206,294.049,72231
539.143,291.903,71776
539.081,289.757,71653
539.019,287.611,71641
538.956,285.464,71235
538.894,283.316,71004
538.832,281.169,70835
538.769,279.02,70965
538.707,276.871,70714
538.644,274.722,70874
538.582,272.572,70297
538.52,270.421,69682
538.457,268.271,68602
538.395,266.119,67411
538.333,263.967,65812
538.27,261.815,64506
538.208,259.662,63556
538.146,257.508,62534
538.083,255.355,61923
538.021,253.2,61508
537.958,251.045,61211
537.896,248.89,60983
537.834,246.734,60900
537.771,244.578,60944
537.709,242.421,60685
537.647,240.263,60654
537.584,238.105,60808
537.522,235.947,60787
537.459,233.788,60734
537.397,231.629,60704
537.335,229.469,60596
537.272,227.308,60682
537.21,225.147,60743
537.148,222.986,60735
537.085,220.824,60715
537.023,218.662,60564
536.96,216.499,60642
536.898,214.335,60588
536.836,212.171,60536
536.773,210.007,60666
536.711,207.842,60597
553.364,768.549,76318
553.301,766.512,76355
553.239,764.475,76465
553.177,762.437,76570
553.114,760.398,76473
553.052,758.359,76616
552.99,756.32,76486
552.927,754.28,76424
552.865,752.24,76666
552.802,750.199,76474
552.74,748.158,76273
552.678,746.116,76399
552.615,744.074,76346
552.553,742.032,76088
552.491,739.989,76196
552.428,737.945,76170
552.366,735.901,76061
552.304,733.857,76286
552.241,731.812,76128
552.179,729.766,76414
552.116,727.721,76276
552.054,725.674,76098
551.992,723.628,76097
551.929,721.58,75806
551.867,719.533,76304
551.805,717.485,76266
551.742,715.436,76079
551.68,713.387,75946
551.617,711.337,76329
551.555,709.287,76123
551.493,707.237,76285
551.43,705.186,76149
551.368,703.135,76376
551.306,701.083,76267
551.243,699.031,75827
551.181,696.978,76188
551.119,694.925,76121
551.056,692.871,76161
550.994,690.817,76011
550.931,688.762,76161
550.869,686.707,76209
550.807,684.651,76244
550.744,682.595,76254
550.682,680.539,75929
550.62,678.482,76351
550.557,676.425,76231
550.495,674.367,75962
550.432,672.308,75894
550.37,670.25,75687
550.308,668.19,75996
550.245,666.131,76038
550.183,664.07,75907
550.121,662.01,76041
550.058,659.948,76028
549.996,657.887,75937
549.933,655.825,75963
549.871,653.762,75925
549.809,651.699,76114
549.746,649.636,75968
549.684,647.572,76015
549.622,645.507,76120
549.559,643.442,75987
549.497,641.377,75700
549.435,639.311,75860
549.372,637.245,75995
549.31,635.178,76019
549.247,633.111,75729
549.185,631.043,75875
549.123,628.975,76119
549.06,626.906,76177
548.998,624.837,76137
548.936,622.768,75784
548.873,620.698,76138
548.811,618.627,75846
548.748,616.556,75844
548.686,614.485,75603
548.624,612.413,75703
548.561,610.34,76071
548.499,608.267,75790
548.437,606.194,75463
548.374,604.12,75566
548.312,602.046,75396
548.249,599.971,75301
548.187,597.896,75328
548.125,595.82,75483
548.062,593.744,75084
548.0,591.667,75121
547.938,589.59,74968
547.875,587.513,75173
547.813,585.434,74760
547.751,583.356,74484
547.688,581.277,74561
547.626,579.197,74595
547.563,577.117,74546
547.501,575.037,74412
547.439,572.956,74657
547.376,570.875,74317
547.314,568.793,74240
547.252,566.71,74478
547.189,564.628,74358
547.127,562.544,74202
547.064,560.461,74072
547.002,558.376,74422
546.94,556.292,74135
546.877,554.206,74208
546.815,552.121,74378
546.753,550.035,74119
546.69,547.948,74396
546.628,545.861,73894
546.565,543.773,74305
546.503,541.685,74316
546.441,539.597,74266
546.378,537.508,74242
546.316,535.418,74330
546.254,533.328,74210
546.191,531.238,74081
546.129,529.147,74304
546.067,527.056,74296
546.004,524.964,74578
545.942,522.871,74779
545.879,520.778,74842
545.817,518.685,75225
545.755,516.591,75358
545.692,514.497,76186
545.63,512.402,77375
545.568,510.307,79136
545.505,508.211,82616
545.443,506.115,85595
545.38,504.019,87994
545.318,501.922,87733
545.256,499.824,85944
545.193,497.726,82646
545.131,495.627,80181
545.069,493.528,78360
545.006,491.429,77209
544.944,489.329,75650
544.881,487.228,75641
544.819,485.127,74922
544.757,483.026,74889
544.694,480.924,74143
544.632,478.821,74159
544.57,476.718,74330
544.507,474.615,74122
544.445,472.511,73939
544.383,470.407,74136
544.32,468.302,74058
544.258,466.197,73883
544.195,464.091,73649
544.133,461.985,73382
544.071,459.878,73227
544.008,457.771,73203
543.946,455.663,73156
543.884,453.555,73142
543.821,451.446,72967
543.759,449.337,72908
543.696,447.227,73055
543.634,445.117,72961
543.572,443.006,72771
543.509,440.895,72413
543.447,438.784,72755
543.385,436.671,72753
543.322,434.559,72656
543.26,432.446,73033
543.198,430.332,72621
543.135,428.218,72903
543.073,426.104,72920
543.01,423.989,72841
542.948,421.873,73079
542.886,419.757,72740
542.823,417.641,72789
542.761,415.524,73036
542.699,413.407,72933
542.636,411.289,72812
542.574,409.17,72761
542.511,407.051,72734
542.449,404.932,72640
542.387,402.812,72840
542.324,400.692,72573
542.262,398.571,72485
542.2,396.45,72691
542.137,394.328,72758
542.075,392.205,72556
542.012,390.083,72620
541.95,387.959,72680
541.888,385.836,72906
541.825,383.711,72298
541.763,381.587,72345
541.701,379.461,72262
541.638,377.336,72422
541.576,375.209,72199
541.514,373.083,72487
541.451,370.955,72146
541.389,368.828,72409
541.326,366.7,72336
541.264,364.571,72340
541.202,362.442,72245
541.139,360.312,72179
541.077,358.182,72354
541.015,356.051,72181
540.952,353.92,72167
540.89,351.789,72312
540.827,349.657,71923
540.765,347.524,71966
540.703,345.391,72055
540.64,343.257,71988
540.578,341.123,71962
540.516,338.989,71826
540.453,336.854,71737
540.391,334.718,71758
540.328,332.582,71600
540.266,330.445,71699
540.204,328.308,71398
540.141,326.171,71538
540.079,324.033,71750
540.017,321.894,71474
539.954,319.755,71642
539.892,317.616,71730
539.83,315.476,71726
539.767,313.335,71921
539.705,311.194,71918
539.642,309.053,71917
539.58,306.911,72049
539.518,304.768,72054
539.455,302.625,72262
539.393,300.482,72283
539.331,298.338,71983
539.268,296.194,72014
539.206,294.049,71819
539.143,291.903,71617
539.081,289.757,71507
539.019,287.611,71281
538.956,285.464,70912
538.894,283.316,70778
538.832,281.169,70887
538.769,279.02,70703
538.707,276.871,70825
538.644,274.722,70863
538.582,272.572,70448
538.52,270.421,69439
538.457,268.271,68284
538.395,266.119,66950
538.333,263.967,65618
538.27,261.815,64283
538.208,259.662,63319
538.146,257.508,62441
538.083,255.355,62032
538.021,253.2,61404
537.958,251.045,61194
537.896,248.89,61024
537.834,246.734,61011
537.771,244.578,60920
537.709,242.421,60869
537.647,240.263,60760
537.584,238.105,60768
537.522,235.947,60739
537.459,233.788,60728
537.397,231.629,60686
537.335,229.469,60700
537.272,227.308,60642
537.21,225.147,60704
537.148,222.986,60658
537.085,220.824,60568
537.023,218.662,60719
536.96,216.499,60634
536.898,214.335,60649
536.836,212.171,60592
536.773,210.007,60675
536.711,207.842,60616
553.364,768.549,77016
553.301,766.512,77508
553.239,764.475,77461
553.177,762.437,77294
553.114,760.398,77351
553.052,758.359,77455
552.99,756.32,77544
552.927,754.28,77247
552.865,752.24,77069
552.802,750.199,77349
552.74,748.158,77115
552.678,746.116,76853
552.615,744.074,77045
552.553,742.032,77209
552.491,739.989,77261
552.428,737.945,77054
552.366,735.901,77018
552.304,733.857,77148
552.241,731.812,77194
552.179,729.766,77175
552.116,727.721,77078
552.054,725.674,77136
551.992,723.628,76839
551.929,721.58,76948
551.867,719.533,77211
551.805,717.485,76635
551.742,715.436,76987
551.68,713.387,76925
551.617,711.337,76940
551.555,709.287,76972
551.493,707.237,76914
551.43,705.186,76697
551.368,703.135,77023
551.306,701.083,76928
551.243,699.031,76665
551.181,696.978,76920
551.119,694.925,77144
551.056,692.871,76771
550.994,690.817,76938
550.931,688.762,76927
550.869,686.707,77100
550.807,684.651,76666
550.744,682.595,76967
550.682,680.539,76974
550.62,678.482,76860
550.557,676.425,76928
550.495,674.367,76884
550.432,672.308,76730
550.37,670.25,76986
550.308,668.19,76881
550.245,666.131,76934
550.183,664.07,76540
550.121,662.01,76760
550.058,659.948,76990
549.996,657.887,76994
549.933,655.825,76592
549.871,653.762,76877
549.809,651.699,76735
549.746,649.636,76808
549.684,647.572,77037
549.622,645.507,76706
549.559,643.442,76802
549.497,641.377,76882
549.435,639.311,76636
549.372,637.245,76609
549.31,635.178,76668
549.247,633.111,77024
549.185,631.043,76773
549.123,628.975,76886
549.06,626.906,77129
548.998,624.837,76811
548.936,622.768,76545
548.873,620.698,76593
548.811,618.627,76739
548.748,616.556,76620
548.686,614.485,76476
548.624,612.413,76533
548.561,610.34,76815
548.499,608.267,76532
548.437,606.194,76425
548.374,604.12,76459
548.312,602.046,76529
548.249,599.971,76033
548.187,597.896,76050
548.125,595.82,76212
548.062,593.744,75998
548.0,591.667,75986
547.938,589.59,75692
547.875,587.513,75885
547.813,585.434,75750
547.751,583.356,75622
547.688,581.277,75225
547.626,579.197,75383
547.563,577.117,75077
547.501,575.037,75116
547.439,572.956,75393
547.376,570.875,75223
547.314,568.793,74938
547.252,566.71,74903
547.189,564.628,75059
547.127,562.544,75211
547.064,560.461,75078
547.002,558.376,75084
546.94,556.292,75006
546.877,554.206,75028
546.815,552.121,75025
546.753,550.035,74858
546.69,547.948,74800
546.628,545.861,74812
546.565,543.773,74792
546.503,541.685,75127
546.441,539.597,74853
546.378,537.508,74868
546.316,535.418,74736
546.254,533.328,74896
546.191,531.238,74647
546.129,529.147,74976
546.067,527.056,74947
546.004,524.964,75113
545.942,522.871,75115
545.879,520.778,75369
545.817,518.685,75755
545.755,516.591,76407
545.692,514.497,76882
545.63,512.402,78075
545.568,510.307,80098
545.505,508.211,82934
545.443,506.115,86818
545.38,504.019,88616
545.318,501.922,88839
545.256,499.824,86642
545.193,497.726,83708
545.131,495.627,81177
545.069,493.528,79145
545.006,491.429,77771
544.944,489.329,76826
544.881,487.228,76387
544.819,485.127,75806
544.757,483.026,75591
544.694,480.924,74885
544.632,478.821,75137
544.57,476.718,75046
544.507,474.615,74522
544.445,472.511,74490
544.383,470.407,74455
544.32,468.302,74250
544.258,466.197,74050
544.195,464.091,73996
544.133,461.985,74354
544.071,459.878,74050
544.008,457.771,73985
543.946,455.663,73826
543.884,453.555,73710
543.821,451.446,73522
543.759,449.337,73379
543.696,447.227,73338
543.634,445.117,73395
543.572,443.006,73392
543.509,440.895,73440
543.447,438.784,73455
543.385,436.671,73383
543.322,434.559,73152
543.26,432.446,73494
543.198,430.332,73397
543.135,428.218,73183
543.073,426.104,73214
543.01,423.989,73407
542.948,421.873,73574
542.886,419.757,73391
542.823,417.641,73560
542.761,415.524,73585
542.699,413.407,73634
542.636,411.289,73536
542.574,409.17,73501
542.511,407.051,73449
542.449,404.932,73359
542.387,402.812,73489
542.324,400.692,73495
542.262,398.571,73130
542.2,396.45,73249
542.137,394.328,73489
542.075,392.205,73511
542.012,390.083,73094
541.95,387.959,73009
541.888,385.836,73345
541.825,383.711,73186
541.763,381.587,72866
541.701,379.461,72932
541.638,377.336,73011
541.576,375.209,73064
541.514,373.083,72947
541.451,370.955,72890
541.389,368.828,72930
541.326,366.7,73018
541.264,364.571,72885
541.202,362.442,73203
541.139,360.312,72976
541.077,358.182,73140
541.015,356.051,72794
540.952,353.92,73074
540.89,351.789,72935
540.827,349.657,72656
540.765,347.524,72958
540.703,345.391,72631
540.64,343.257,72817
540.578,341.123,72624
540.516,338.989,72756
540.453,336.854,72124
540.391,334.718,72265
540.328,332.582,72094
540.266,330.445,72269
540.204,328.308,72026
540.141,326.171,72151
540.079,324.033,72131
540.017,321.894,72127
539.954,319.755,72002
539.892,317.616,72159
539.83,315.476,72206
539.767,313.335,72154
539.705,311.194,72232
539.642,309.053,72465
539.58,306.911,72440
539.518,304.768,75713
539.455,302.625,72748
539.393,300.482,72585
539.331,298.338,72519
539.268,296.194,72380
539.206,294.049,72225
539.143,291.903,72055
539.081,289.757,72027
539.019,287.611,72028
538.956,285.464,71317
538.894,283.316,71577
538.832,281.169,70988
538.769,279.02,70978
538.707,276.871,71120
538.644,274.722,70825
538.582,272.572,70801
538.52,270.421,70225
538.457,268.271,68808
538.395,266.119,67333
538.333,263.967,65985
538.27,261.815,64619
538.208,259.662,63475
538.146,257.508,62689
538.083,255.355,61857
538.021,253.2,61633
537.958,251.045,61276
537.896,248.89,61087
537.834,246.734,60951
537.771,244.578,60816
537.709,242.421,60738
537.647,240.263,60747
537.584,238.105,60780
537.522,235.947,60766
537.459,233.788,60766
537.397,231.629,60654
537.335,229.469,60647
537.272,227.308,60680
537.21,225.147,60665
537.148,222.986,60573
537.085,220.824,60695
537.023,218.662,60661
536.96,216.499,60575
536.898,214.335,60628
536.836,212.171,60622
536.773,210.007,60745
536.711,207.842,60660
553.364,768.549,76486
553.301,766.512,76914
553.239,764.475,77043
553.177,762.437,76961
553.114,760.398,76659
553.052,758.359,76780
552.99,756.32,76885
552.927,754.28,76675
552.865,752.24,76666
552.802,750.199,76708
552.74,748.158,76867
552.678,746.116,76703
552.615,744.074,76641
552.553,742.032,76396
552.491,739.989,76682
552.428,737.945,76570
552.366,735.901,76694
552.304,733.857,76390
552.241,731.812,76540
552.179,729.766,76417
552.116,727.721,76456
552.054,725.674,76447
551.992,723.628,76550
551.929,721.58,76395
551.867,719.533,76848
551.805,717.485,76276
551.742,715.436,76499
551.68,713.387,76437
551.617,711.337,76432
551.555,709.287,76502
551.493,707.237,76420
551.43,705.186,76264
551.368,703.135,76459
551.306,701.083,76533
551.243,699.031,76473
551.181,696.978,76769
551.119,694.925,76676
551.056,692.871,76497
550.994,690.817,76547
550.931,688.762,76339
550.869,686.707,76404
550.807,684.651,76298
550.744,682.595,76463
550.682,680.539,76490
550.62,678.482,76409
550.557,676.425,76294
550.495,674.367,76348
550.432,672.308,76347
550.37,670.25,76165
550.308,668.19,76204
550.245,666.131,76250
550.183,664.07,76379
550.121,662.01,76349
550.058,659.948,76212
549.996,657.887,76410
549.933,655.825,76158
549.871,653.762,76209
549.809,651.699,76166
549.746,649.636,76115
549.684,647.572,76110
549.622,645.507,76331
549.559,643.442,76114
549.497,641.377,76336
549.435,639.311,76348
549.372,637.245,76298
549.31,635.178,75974
549.247,633.111,76490
549.185,631.043,76368
549.123,628.975,75967
549.06,626.906,76232
548.998,624.837,76465
548.936,622.768,76497
548.873,620.698,76222
548.811,618.627,76169
548.748,616.556,75868
548.686,614.485,75917
548.624,612.413,76052
548.561,610.34,76104
548.499,608.267,75826
548.437,606.194,75598
548.374,604.12,76153
548.312,602.046,75736
548.249,599.971,75818
548.187,597.896,75915
548.125,595.82,75498
548.062,593.744,75366
548.0,591.667,75258
547.938,589.59,75213
547.875,587.513,75154
547.813,585.434,75430
547.751,583.356,75297
547.688,581.277,74930
547.626,579.197,75064
547.563,577.117,74737
547.501,575.037,74699
547.439,572.956,74623
547.376,570.875,74640
547.314,568.793,74618
547.252,566.71,74643
547.189,564.628,74553
547.127,562.544,74645
547.064,560.461,74567
547.002,558.376,74472
546.94,556.292,74544
546.877,554.206,74370
546.815,552.121,74586
546.753,550.035,74378
546.69,547.948,74320
546.628,545.861,74331
546.565,543.773,74295
546.503,541.685,74578
546.441,539.597,74382
546.378,537.508,74004
546.316,535.418,74173
546.254,533.328,74042
546.191,531.238,74150
546.129,529.147,74553
546.067,527.056,74583
546.004,524.964,74681
545.942,522.871,74693
545.879,520.778,75030
545.817,518.685,75309
545.755,516.591,75858
545.692,514.497,76682
545.63,512.402,77884
545.568,510.307,79781
545.505,508.211,82918
545.443,506.115,85934
545.38,504.019,88494
545.318,501.922,88242
545.256,499.824,86432
545.193,497.726,83241
545.131,495.627,80304
545.069,493.528,78663
545.006,491.429,77119
544.944,489.329,76460
544.881,487.228,75752
544.819,485.127,75690
544.757,483.026,74983
544.694,480.924,74657
544.632,478.821,74900
544.57,476.718,74600
544.507,474.615,74337
544.445,472.511,74192
544.383,470.407,74223
544.32,468.302,73940
544.258,466.197,73747
544.195,464.091,73989
544.133,461.985,73746
544.071,459.878,73781
544.008,457.771,73370
543.946,455.663,73356
543.884,453.555,73237
543.821,451.446,73297
543.759,449.337,73274
543.696,447.227,73015
543.634,445.117,73118
543.572,443.006,76811
543.509,440.895,73065
543.447,438.784,73024
543.385,436.671,74463
543.322,434.559,73082
543.26,432.446,72880
543.198,430.332,73107
543.135,428.218,73101
543.073,426.104,72814
543.01,423.989,73036
542.948,421.873,73062
542.886,419.757,73074
542.823,417.641,73406
542.761,415.524,73110
542.699,413.407,73058
542.636,411.289,72901
542.574,409.17,73105
542.511,407.051,73127
542.449,404.932,73027
542.387,402.812,73107
542.324,400.692,73045
542.262,398.571,73277
542.2,396.45,73028
542.137,394.328,73000
542.075,392.205,73128
542.012,390.083,72969
541.95,387.959,72708
541.888,385.836,72687
541.825,383.711,72561
541.763,381.587,72622
541.701,379.461,72503
541.638,377.336,72466
541.576,375.209,72407
541.514,373.083,72263
541.451,370.955,72548
541.389,368.828,72591
541.326,366.7,72769
541.264,364.571,72303
541.202,362.442,72341
541.139,360.312,72332
541.077,358.182,72406
541.015,356.051,72371
540.952,353.92,72457
540.89,351.789,72426
540.827,349.657,72607
540.765,347.524,72883
540.703,345.391,72464
540.64,343.257,72156
540.578,341.123,72256
540.516,338.989,72060
540.453,336.854,72094
540.391,334.718,71925
540.328,332.582,71898
540.266,330.445,71728
540.204,328.308,71799
540.141,326.171,71715
540.079,324.033,71671
540.017,321.894,71633
539.954,319.755,71981
539.892,317.616,71778
539.83,315.476,71631
539.767,313.335,72018
539.705,311.194,72258
539.642,309.053,72222
539.58,306.911,72435
539.518,304.768,71932
539.455,302.625,72504
539.393,300.482,72145
539.331,298.338,72134
539.268,296.194,71951
539.206,294.049,72013
539.143,291.903,71797
539.081,289.757,71564
539.019,287.611,71545
538.956,285.464,71232
538.894,283.316,70714
538.832,281.169,70777
538.769,279.02,70876
538.707,276.871,71037
538.644,274.722,70738
538.582,272.572,70492
538.52,270.421,69673
538.457,268.271,68447
538.395,266.119,67163
538.333,263.967,65710
538.27,261.815,64489
538.208,259.662,63342
538.146,257.508,62491
538.083,255.355,61831
538.021,253.2,61469
537.958,251.045,61228
537.896,248.89,61071
537.834,246.734,60954
537.771,244.578,60813
537.709,242.421,60872
537.647,240.263,60749
537.584,238.105,60744
537.522,235.947,60662
537.459,233.788,60649
537.397,231.629,60672
537.335,229.469,60712
537.272,227.308,60613
537.21,225.147,60676
537.148,222.986,60589
537.085,220.824,60632
537.023,218.662,60710
536.96,216.499,60691
536.898,214.335,60728
536.836,212.171,60554
536.773,210.007,60652
536.711,207.842,60656
536.661,206.11,60649