File: tomke/20240809/raw_data/Si_onTiO2_0mA_30mW_30sec_5acc_539nm.txt
Wavelength(nm), Raman shift(cm^-1), Intensity(counts)
547.364,570.458,59787
547.301,568.376,60365
547.239,566.294,60102
547.177,564.211,60244
547.114,562.128,60234
547.052,560.044,60288
546.99,557.959,60254
546.927,555.875,60333
546.865,553.789,60382
546.802,551.704,60302
546.74,549.617,60483
546.678,547.531,60490
546.615,545.443,60546
546.553,543.356,60651
546.491,541.268,60868
546.428,539.179,61045
546.366,537.09,61225
546.304,535,61782
546.241,532.91,62795
546.179,530.82,64999
546.116,528.729,72034
546.054,526.637,93806
545.992,524.545,108912
545.929,522.453,98416
545.867,520.36,80838
545.805,518.266,70431
545.742,516.173,64913
545.68,514.078,62694
545.617,511.983,61675
545.555,509.888,61330
545.493,507.792,61055
545.43,505.696,60712
545.368,503.599,60658
545.306,501.502,60529
545.243,499.404,60533
545.181,497.306,60441
545.119,495.207,60476
545.056,493.108,60421
544.994,491.009,60369
544.931,488.909,60305
544.869,486.808,60285
544.807,484.707,60259
544.744,482.605,60219
544.682,480.503,60237
544.62,478.401,60138
544.557,476.298,60208
544.495,474.194,60137
544.432,472.09,60183
544.37,469.986,60151
544.308,467.881,60247
544.245,465.776,60249
544.183,463.67,60164
544.121,461.563,60186
544.058,459.456,60145
543.996,457.349,60175
543.933,455.241,60227
543.871,453.133,60230
543.809,451.024,60229
543.746,448.915,60250
543.684,446.805,60132
543.622,444.695,60298
543.559,442.584,60320
543.497,440.473,60256
543.435,438.361,60349
543.372,436.249,60364
543.31,434.136,60390
543.247,432.023,60303
543.185,429.91,60287
543.123,427.795,60341
543.06,425.681,60334
542.998,423.566,60337
542.936,421.45,60276
542.873,419.334,60376
542.811,417.218,60295
542.748,415.1,60343
542.686,412.983,60192
542.624,410.865,60235
542.561,408.746,60311
542.499,406.627,60348
542.437,404.508,60385
542.374,402.388,60304
542.312,400.268,60277
542.249,398.147,60332
542.187,396.025,60314
542.125,393.903,60299
542.062,391.781,60371
542.0,389.658,60366
541.938,387.535,60372
541.875,385.411,60331
541.813,383.286,60341
541.751,381.162,60306
541.688,379.036,60355
541.626,376.91,60333
541.563,374.784,60348
541.501,372.657,60267
541.439,370.53,60333
541.376,368.402,60407
541.314,366.274,60453
541.252,364.145,60362
541.189,362.016,60383
541.127,359.886,60380
541.064,357.756,60320
541.002,355.625,60320
540.94,353.494,60276
540.877,351.362,60400
540.815,349.23,60442
540.753,347.097,60411
540.69,344.964,60417
540.628,342.83,60457
540.565,340.696,60500
540.503,338.562,60414
540.441,336.426,60497
540.378,334.291,60412
540.316,332.155,60544
540.254,330.018,60379
540.191,327.881,60520
540.129,325.743,60514
540.067,323.605,60609
540.004,321.467,60577
539.942,319.327,60490
539.879,317.188,60658
539.817,315.048,60611
539.755,312.907,60564
539.692,310.766,60739
539.63,308.625,60787
539.568,306.482,60706
539.505,304.34,60836
539.443,302.197,60987
539.38,300.053,60925
539.318,297.909,60807
539.256,295.765,60654
539.193,293.62,60633
539.131,291.474,60656
539.069,289.328,60620
539.006,287.181,60600
538.944,285.034,60609
538.881,282.887,60697
538.819,280.739,60520
538.757,278.59,60531
538.694,276.441,60559
538.632,274.292,60525
538.57,272.142,60535
538.507,269.991,60418
538.445,267.84,60411
538.383,265.689,60321
538.32,263.537,60138
538.258,261.384,60058
538.195,259.231,60077
538.133,257.078,60024
538.071,254.924,60082
538.008,252.769,60073
537.946,250.614,59997
537.884,248.459,60035
537.821,246.303,60041
537.759,244.146,59958
537.696,241.989,59950
537.634,239.832,60011
537.572,237.674,59995
537.509,235.515,59970
537.447,233.356,59979
537.385,231.197,60012
537.322,229.037,60008
537.26,226.876,59993
537.198,224.715,59911
537.135,222.554,59975
537.073,220.392,59970
537.01,218.229,60006
536.948,216.066,59943
536.886,213.902,59984
536.823,211.738,59999
536.761,209.574,59995
536.699,207.409,59975
536.636,205.243,59949
536.574,203.077,59954
536.511,200.911,59906
536.449,198.744,59938
536.387,196.576,59966
536.324,194.408,59964
536.262,192.24,59904
536.2,190.07,60011
536.137,187.901,59967
536.075,185.731,60029
536.012,183.56,60015
535.95,181.389,59989
535.888,179.218,59978
535.825,177.045,59983
535.763,174.873,59995
535.701,172.7,59977
535.638,170.526,60026
535.576,168.352,60005
535.514,166.177,60020
535.451,164.002,59910
535.389,161.827,59986
535.326,159.65,60021
535.264,157.474,59977
535.202,155.297,59930
535.139,153.119,59866
535.077,150.941,59947
535.015,148.762,59992
534.952,146.583,59892
534.89,144.403,59943
534.827,142.223,60004
534.765,140.042,59997
534.703,137.861,59951
534.64,135.679,60023
534.578,133.497,59964
534.516,131.314,59949
534.453,129.131,60022
534.391,126.947,59936
534.328,124.763,59898
534.266,122.578,59997
534.204,120.393,59971
534.141,118.207,59971
534.079,116.021,59954
534.017,113.834,59968
533.954,111.647,59894
533.892,109.459,59947
533.83,107.27,59951
533.767,105.082,60049
533.705,102.892,59938
533.642,100.702,59906
533.58,98.5118,60020
533.518,96.3209,59930
533.455,94.1295,59948
533.393,91.9375,60031
533.331,89.745,59892
533.268,87.5521,59934
533.206,85.3586,60039
533.143,83.1646,59897
533.081,80.9701,59985
533.019,78.775,59870
532.956,76.5795,59981
532.894,74.3834,60008
532.832,72.1869,60007
532.769,69.9898,59983
532.707,67.7922,59961
532.644,65.5941,59955
532.582,63.3954,59909
532.52,61.1963,59933
532.457,58.9966,59993
532.395,56.7964,59992
532.333,54.5958,60030
532.27,52.3945,60017
532.208,50.1928,60067
532.146,47.9906,60006
532.083,45.7878,60024
532.021,43.5846,60039
531.958,41.3808,59987
531.896,39.1765,60075
531.834,36.9716,60023
531.771,34.7663,59996
531.709,32.5604,59984
531.647,30.3541,60024
531.584,28.1472,59986
531.522,25.9398,60054
531.459,23.7318,60014
531.397,21.5234,59961
531.335,19.3144,59999
531.272,17.1049,60025
531.21,14.8949,60052
531.148,12.6844,60145
531.085,10.4734,60119
531.023,8.26182,60161
530.96,6.04974,60374
530.898,3.83714,86223
530.836,1.62402,475016
530.773,-0.589617,1386884
530.711,-2.80378,211195
547.364,570.458,59878
547.301,568.376,60332
547.239,566.294,60169
547.177,564.211,60164
547.114,562.128,60236
547.052,560.044,60261
546.99,557.959,60321
546.927,555.875,60333
546.865,553.789,60299
546.802,551.704,60463
546.74,549.617,60455
546.678,547.531,60645
546.615,545.443,60556
546.553,543.356,60730
546.491,541.268,60769
546.428,539.179,60965
546.366,537.09,61305
546.304,535,61944
546.241,532.91,62885
546.179,530.82,65028
546.116,528.729,71981
546.054,526.637,93408
545.992,524.545,108675
545.929,522.453,98595
545.867,520.36,80753
545.805,518.266,70626
545.742,516.173,64843
545.68,514.078,62542
545.617,511.983,61702
545.555,509.888,61194
545.493,507.792,60992
545.43,505.696,60754
545.368,503.599,60739
545.306,501.502,60649
545.243,499.404,60498
545.181,497.306,60489
545.119,495.207,60406
545.056,493.108,60356
544.994,491.009,60388
544.931,488.909,60267
544.869,486.808,60380
544.807,484.707,60310
544.744,482.605,60254
544.682,480.503,60250
544.62,478.401,60208
544.557,476.298,60310
544.495,474.194,60165
544.432,472.09,60167
544.37,469.986,60240
544.308,467.881,60247
544.245,465.776,60145
544.183,463.67,60111
544.121,461.563,60207
544.058,459.456,60099
543.996,457.349,60187
543.933,455.241,60230
543.871,453.133,60218
543.809,451.024,60257
543.746,448.915,60257
543.684,446.805,60292
543.622,444.695,60318
543.559,442.584,60278
543.497,440.473,60275
543.435,438.361,60293
543.372,436.249,60377
543.31,434.136,60378
543.247,432.023,60297
543.185,429.91,60357
543.123,427.795,60286
543.06,425.681,60306
542.998,423.566,60287
542.936,421.45,60328
542.873,419.334,60280
542.811,417.218,60212
542.748,415.1,60259
542.686,412.983,60294
542.624,410.865,60287
542.561,408.746,60355
542.499,406.627,60270
542.437,404.508,60311
542.374,402.388,60315
542.312,400.268,60407
542.249,398.147,60314
542.187,396.025,60334
542.125,393.903,60301
542.062,391.781,60312
542.0,389.658,60269
541.938,387.535,60295
541.875,385.411,60422
541.813,383.286,60418
541.751,381.162,60328
541.688,379.036,60247
541.626,376.91,60192
541.563,374.784,60355
541.501,372.657,60313
541.439,370.53,60379
541.376,368.402,60479
541.314,366.274,60421
541.252,364.145,60352
541.189,362.016,60419
541.127,359.886,60485
541.064,357.756,60378
541.002,355.625,60357
540.94,353.494,60289
540.877,351.362,60454
540.815,349.23,60423
540.753,347.097,60404
540.69,344.964,60455
540.628,342.83,60434
540.565,340.696,60421
540.503,338.562,60384
540.441,336.426,60479
540.378,334.291,60441
540.316,332.155,60485
540.254,330.018,60515
540.191,327.881,60509
540.129,325.743,60575
540.067,323.605,60658
540.004,321.467,60476
539.942,319.327,60617
539.879,317.188,60608
539.817,315.048,60612
539.755,312.907,60671
539.692,310.766,60741
539.63,308.625,60877
539.568,306.482,60996
539.505,304.34,60968
539.443,302.197,60967
539.38,300.053,60849
539.318,297.909,60875
539.256,295.765,60702
539.193,293.62,60707
539.131,291.474,60669
539.069,289.328,60657
539.006,287.181,60554
538.944,285.034,60579
538.881,282.887,60597
538.819,280.739,60555
538.757,278.59,60645
538.694,276.441,60569
538.632,274.292,60628
538.57,272.142,60494
538.507,269.991,60451
538.445,267.84,60403
538.383,265.689,60197
538.32,263.537,60252
538.258,261.384,60146
538.195,259.231,60030
538.133,257.078,60069
538.071,254.924,60031
538.008,252.769,60056
537.946,250.614,59981
537.884,248.459,60030
537.821,246.303,59958
537.759,244.146,60023
537.696,241.989,59966
537.634,239.832,59970
537.572,237.674,59920
537.509,235.515,60070
537.447,233.356,60024
537.385,231.197,59983
537.322,229.037,60005
537.26,226.876,60035
537.198,224.715,60016
537.135,222.554,60041
537.073,220.392,59984
537.01,218.229,60041
536.948,216.066,59997
536.886,213.902,59958
536.823,211.738,59999
536.761,209.574,59981
536.699,207.409,59993
536.636,205.243,60005
536.574,203.077,59933
536.511,200.911,59948
536.449,198.744,60011
536.387,196.576,60027
536.324,194.408,59975
536.262,192.24,59977
536.2,190.07,59907
536.137,187.901,59969
536.075,185.731,59950
536.012,183.56,60066
535.95,181.389,59967
535.888,179.218,60000
535.825,177.045,59977
535.763,174.873,59946
535.701,172.7,60016
535.638,170.526,60011
535.576,168.352,60037
535.514,166.177,60079
535.451,164.002,59903
535.389,161.827,59989
535.326,159.65,59968
535.264,157.474,59958
535.202,155.297,59993
535.139,153.119,59981
535.077,150.941,59919
535.015,148.762,60099
534.952,146.583,59958
534.89,144.403,59998
534.827,142.223,59980
534.765,140.042,59942
534.703,137.861,60018
534.64,135.679,59981
534.578,133.497,60026
534.516,131.314,59952
534.453,129.131,60050
534.391,126.947,59965
534.328,124.763,59913
534.266,122.578,59956
534.204,120.393,59936
534.141,118.207,60048
534.079,116.021,59922
534.017,113.834,59930
533.954,111.647,59974
533.892,109.459,59949
533.83,107.27,59947
533.767,105.082,59987
533.705,102.892,59866
533.642,100.702,59940
533.58,98.5118,60073
533.518,96.3209,60017
533.455,94.1295,59996
533.393,91.9375,60095
533.331,89.745,59969
533.268,87.5521,59955
533.206,85.3586,59987
533.143,83.1646,59909
533.081,80.9701,59963
533.019,78.775,59903
532.956,76.5795,60016
532.894,74.3834,60031
532.832,72.1869,60007
532.769,69.9898,60028
532.707,67.7922,60037
532.644,65.5941,59954
532.582,63.3954,59968
532.52,61.1963,59922
532.457,58.9966,59985
532.395,56.7964,59980
532.333,54.5958,59998
532.27,52.3945,59969
532.208,50.1928,59939
532.146,47.9906,59958
532.083,45.7878,60012
532.021,43.5846,60012
531.958,41.3808,60024
531.896,39.1765,60074
531.834,36.9716,60060
531.771,34.7663,59916
531.709,32.5604,60079
531.647,30.3541,60020
531.584,28.1472,60044
531.522,25.9398,60047
531.459,23.7318,60151
531.397,21.5234,60130
531.335,19.3144,59955
531.272,17.1049,60038
531.21,14.8949,60060
531.148,12.6844,60013
531.085,10.4734,60210
531.023,8.26182,60170
530.96,6.04974,60437
530.898,3.83714,86825
530.836,1.62402,471163
530.773,-0.589617,1394499
530.711,-2.80378,211368
547.364,570.458,60029
547.301,568.376,60327
547.239,566.294,60163
547.177,564.211,60252
547.114,562.128,60273
547.052,560.044,60219
546.99,557.959,60162
546.927,555.875,60299
546.865,553.789,60321
546.802,551.704,60400
546.74,549.617,60458
546.678,547.531,60524
546.615,545.443,60562
546.553,543.356,60661
546.491,541.268,60824
546.428,539.179,60947
546.366,537.09,61300
546.304,535,61775
546.241,532.91,62713
546.179,530.82,64898
546.116,528.729,72210
546.054,526.637,93614
545.992,524.545,108039
545.929,522.453,98472
545.867,520.36,80778
545.805,518.266,70768
545.742,516.173,64834
545.68,514.078,62582
545.617,511.983,61712
545.555,509.888,61317
545.493,507.792,60926
545.43,505.696,60761
545.368,503.599,60752
545.306,501.502,60637
545.243,499.404,60641
545.181,497.306,60467
545.119,495.207,60405
545.056,493.108,60371
544.994,491.009,60297
544.931,488.909,60347
544.869,486.808,60281
544.807,484.707,60274
544.744,482.605,60231
544.682,480.503,60175
544.62,478.401,60223
544.557,476.298,60301
544.495,474.194,60153
544.432,472.09,60127
544.37,469.986,60233
544.308,467.881,60172
544.245,465.776,60210
544.183,463.67,60115
544.121,461.563,60210
544.058,459.456,60236
543.996,457.349,60132
543.933,455.241,60197
543.871,453.133,60176
543.809,451.024,60227
543.746,448.915,60293
543.684,446.805,60257
543.622,444.695,60226
543.559,442.584,60282
543.497,440.473,60294
543.435,438.361,60354
543.372,436.249,60313
543.31,434.136,60295
543.247,432.023,60298
543.185,429.91,60326
543.123,427.795,60338
543.06,425.681,60388
542.998,423.566,60295
542.936,421.45,60232
542.873,419.334,60298
542.811,417.218,60368
542.748,415.1,60341
542.686,412.983,60297
542.624,410.865,60315
542.561,408.746,60279
542.499,406.627,60252
542.437,404.508,60269
542.374,402.388,60356
542.312,400.268,60444
542.249,398.147,60362
542.187,396.025,60327
542.125,393.903,60295
542.062,391.781,60284
542.0,389.658,60244
541.938,387.535,60283
541.875,385.411,60285
541.813,383.286,60293
541.751,381.162,60372
541.688,379.036,60346
541.626,376.91,60365
541.563,374.784,60455
541.501,372.657,60347
541.439,370.53,60440
541.376,368.402,60537
541.314,366.274,60331
541.252,364.145,60350
541.189,362.016,60455
541.127,359.886,60395
541.064,357.756,60401
541.002,355.625,60378
540.94,353.494,60347
540.877,351.362,60481
540.815,349.23,60474
540.753,347.097,60408
540.69,344.964,60412
540.628,342.83,60376
540.565,340.696,60433
540.503,338.562,60432
540.441,336.426,60455
540.378,334.291,60338
540.316,332.155,60490
540.254,330.018,60476
540.191,327.881,60512
540.129,325.743,60481
540.067,323.605,60504
540.004,321.467,60637
539.942,319.327,60657
539.879,317.188,60605
539.817,315.048,60606
539.755,312.907,60736
539.692,310.766,60764
539.63,308.625,60816
539.568,306.482,60970
539.505,304.34,60976
539.443,302.197,60960
539.38,300.053,60936
539.318,297.909,60806
539.256,295.765,60782
539.193,293.62,60719
539.131,291.474,60611
539.069,289.328,60593
539.006,287.181,60621
538.944,285.034,60529
538.881,282.887,60625
538.819,280.739,60615
538.757,278.59,60504
538.694,276.441,60663
538.632,274.292,60595
538.57,272.142,60614
538.507,269.991,60391
538.445,267.84,60397
538.383,265.689,60250
538.32,263.537,60224
538.258,261.384,60164
538.195,259.231,60046
538.133,257.078,60032
538.071,254.924,60036
538.008,252.769,59953
537.946,250.614,59893
537.884,248.459,59984
537.821,246.303,60021
537.759,244.146,59959
537.696,241.989,59979
537.634,239.832,60048
537.572,237.674,59960
537.509,235.515,59976
537.447,233.356,60001
537.385,231.197,59949
537.322,229.037,59935
537.26,226.876,60012
537.198,224.715,60015
537.135,222.554,59928
537.073,220.392,59923
537.01,218.229,59920
536.948,216.066,60025
536.886,213.902,59933
536.823,211.738,59977
536.761,209.574,59980
536.699,207.409,60015
536.636,205.243,60019
536.574,203.077,59926
536.511,200.911,59944
536.449,198.744,59951
536.387,196.576,59986
536.324,194.408,59985
536.262,192.24,59926
536.2,190.07,59930
536.137,187.901,59982
536.075,185.731,59945
536.012,183.56,59938
535.95,181.389,60042
535.888,179.218,59925
535.825,177.045,59948
535.763,174.873,59943
535.701,172.7,59894
535.638,170.526,59941
535.576,168.352,59941
535.514,166.177,59935
535.451,164.002,59955
535.389,161.827,59991
535.326,159.65,60005
535.264,157.474,59963
535.202,155.297,59935
535.139,153.119,59997
535.077,150.941,59920
535.015,148.762,59984
534.952,146.583,59966
534.89,144.403,59969
534.827,142.223,59951
534.765,140.042,59948
534.703,137.861,59937
534.64,135.679,60008
534.578,133.497,59979
534.516,131.314,59983
534.453,129.131,59891
534.391,126.947,60011
534.328,124.763,59973
534.266,122.578,60041
534.204,120.393,59979
534.141,118.207,59908
534.079,116.021,59976
534.017,113.834,59954
533.954,111.647,59950
533.892,109.459,60030
533.83,107.27,59989
533.767,105.082,60014
533.705,102.892,60051
533.642,100.702,59926
533.58,98.5118,59908
533.518,96.3209,60001
533.455,94.1295,60067
533.393,91.9375,60033
533.331,89.745,59963
533.268,87.5521,60027
533.206,85.3586,59933
533.143,83.1646,59913
533.081,80.9701,59983
533.019,78.775,59962
532.956,76.5795,59982
532.894,74.3834,59984
532.832,72.1869,59995
532.769,69.9898,59963
532.707,67.7922,59996
532.644,65.5941,60080
532.582,63.3954,59976
532.52,61.1963,59968
532.457,58.9966,59946
532.395,56.7964,59961
532.333,54.5958,59995
532.27,52.3945,60000
532.208,50.1928,59975
532.146,47.9906,60094
532.083,45.7878,60006
532.021,43.5846,59992
531.958,41.3808,60070
531.896,39.1765,60031
531.834,36.9716,59965
531.771,34.7663,60050
531.709,32.5604,60008
531.647,30.3541,60046
531.584,28.1472,60102
531.522,25.9398,59958
531.459,23.7318,59975
531.397,21.5234,60040
531.335,19.3144,59994
531.272,17.1049,60107
531.21,14.8949,60070
531.148,12.6844,60078
531.085,10.4734,60068
531.023,8.26182,60149
530.96,6.04974,60484
530.898,3.83714,86751
530.836,1.62402,476176
530.773,-0.589617,1383660
530.711,-2.80378,211086
547.364,570.458,59929
547.301,568.376,60325
547.239,566.294,60192
547.177,564.211,60145
547.114,562.128,60189
547.052,560.044,60312
546.99,557.959,60343
546.927,555.875,60296
546.865,553.789,60415
546.802,551.704,60362
546.74,549.617,60459
546.678,547.531,60475
546.615,545.443,60653
546.553,543.356,60758
546.491,541.268,60811
546.428,539.179,61085
546.366,537.09,61299
546.304,535,61761
546.241,532.91,62781
546.179,530.82,64913
546.116,528.729,72126
546.054,526.637,93312
545.992,524.545,108425
545.929,522.453,98584
545.867,520.36,80836
545.805,518.266,70333
545.742,516.173,64902
545.68,514.078,62546
545.617,511.983,61724
545.555,509.888,61255
545.493,507.792,61013
545.43,505.696,60819
545.368,503.599,60625
545.306,501.502,60520
545.243,499.404,60482
545.181,497.306,60547
545.119,495.207,60380
545.056,493.108,60401
544.994,491.009,60359
544.931,488.909,60309
544.869,486.808,60240
544.807,484.707,60324
544.744,482.605,60311
544.682,480.503,60304
544.62,478.401,60218
544.557,476.298,60283
544.495,474.194,60188
544.432,472.09,60162
544.37,469.986,60186
544.308,467.881,60242
544.245,465.776,60253
544.183,463.67,60104
544.121,461.563,60173
544.058,459.456,60141
543.996,457.349,60278
543.933,455.241,60234
543.871,453.133,60230
543.809,451.024,60224
543.746,448.915,60261
543.684,446.805,60292
543.622,444.695,60242
543.559,442.584,60385
543.497,440.473,60263
543.435,438.361,60334
543.372,436.249,60352
543.31,434.136,60343
543.247,432.023,60386
543.185,429.91,60298
543.123,427.795,60361
543.06,425.681,60318
542.998,423.566,60332
542.936,421.45,60308
542.873,419.334,60331
542.811,417.218,60387
542.748,415.1,60393
542.686,412.983,60385
542.624,410.865,60403
542.561,408.746,60331
542.499,406.627,60300
542.437,404.508,60356
542.374,402.388,60270
542.312,400.268,60296
542.249,398.147,60381
542.187,396.025,60425
542.125,393.903,60341
542.062,391.781,60312
542.0,389.658,60354
541.938,387.535,60307
541.875,385.411,60421
541.813,383.286,60378
541.751,381.162,60316
541.688,379.036,60341
541.626,376.91,60358
541.563,374.784,60352
541.501,372.657,60321
541.439,370.53,60352
541.376,368.402,60413
541.314,366.274,60424
541.252,364.145,60474
541.189,362.016,60432
541.127,359.886,60455
541.064,357.756,60379
541.002,355.625,60379
540.94,353.494,60426
540.877,351.362,60325
540.815,349.23,60432
540.753,347.097,60370
540.69,344.964,60412
540.628,342.83,60467
540.565,340.696,60407
540.503,338.562,60416
540.441,336.426,60416
540.378,334.291,60536
540.316,332.155,60576
540.254,330.018,60546
540.191,327.881,60596
540.129,325.743,60569
540.067,323.605,60569
540.004,321.467,60610
539.942,319.327,60558
539.879,317.188,60677
539.817,315.048,60678
539.755,312.907,60715
539.692,310.766,60751
539.63,308.625,60927
539.568,306.482,60929
539.505,304.34,60867
539.443,302.197,61023
539.38,300.053,60884
539.318,297.909,60852
539.256,295.765,60792
539.193,293.62,60703
539.131,291.474,60707
539.069,289.328,60695
539.006,287.181,60622
538.944,285.034,60529
538.881,282.887,60570
538.819,280.739,60606
538.757,278.59,60559
538.694,276.441,60655
538.632,274.292,60544
538.57,272.142,60570
538.507,269.991,60344
538.445,267.84,60326
538.383,265.689,60250
538.32,263.537,60263
538.258,261.384,60230
538.195,259.231,60072
538.133,257.078,60078
538.071,254.924,60076
538.008,252.769,60032
537.946,250.614,60026
537.884,248.459,59962
537.821,246.303,60020
537.759,244.146,59958
537.696,241.989,60105
537.634,239.832,59937
537.572,237.674,59973
537.509,235.515,59974
537.447,233.356,60016
537.385,231.197,59983
537.322,229.037,59928
537.26,226.876,59999
537.198,224.715,59971
537.135,222.554,59954
537.073,220.392,59908
537.01,218.229,59946
536.948,216.066,59946
536.886,213.902,59972
536.823,211.738,60018
536.761,209.574,59985
536.699,207.409,60027
536.636,205.243,59988
536.574,203.077,59900
536.511,200.911,59972
536.449,198.744,59964
536.387,196.576,59978
536.324,194.408,59986
536.262,192.24,59961
536.2,190.07,60021
536.137,187.901,59988
536.075,185.731,59997
536.012,183.56,60008
535.95,181.389,59957
535.888,179.218,59992
535.825,177.045,59990
535.763,174.873,59880
535.701,172.7,59912
535.638,170.526,59961
535.576,168.352,60112
535.514,166.177,60065
535.451,164.002,60052
535.389,161.827,60037
535.326,159.65,59979
535.264,157.474,63431
535.202,155.297,59967
535.139,153.119,60044
535.077,150.941,59981
535.015,148.762,60014
534.952,146.583,59978
534.89,144.403,59990
534.827,142.223,59990
534.765,140.042,59973
534.703,137.861,60030
534.64,135.679,59981
534.578,133.497,60042
534.516,131.314,59953
534.453,129.131,59953
534.391,126.947,60000
534.328,124.763,59955
534.266,122.578,60002
534.204,120.393,60006
534.141,118.207,60048
534.079,116.021,59968
534.017,113.834,59996
533.954,111.647,59997
533.892,109.459,60028
533.83,107.27,60078
533.767,105.082,59981
533.705,102.892,59970
533.642,100.702,60035
533.58,98.5118,59922
533.518,96.3209,59940
533.455,94.1295,60047
533.393,91.9375,59938
533.331,89.745,60007
533.268,87.5521,59999
533.206,85.3586,59968
533.143,83.1646,60009
533.081,80.9701,59940
533.019,78.775,60009
532.956,76.5795,59983
532.894,74.3834,59990
532.832,72.1869,60035
532.769,69.9898,59954
532.707,67.7922,59943
532.644,65.5941,60045
532.582,63.3954,59906
532.52,61.1963,59950
532.457,58.9966,60050
532.395,56.7964,59963
532.333,54.5958,60022
532.27,52.3945,60053
532.208,50.1928,60083
532.146,47.9906,60005
532.083,45.7878,60096
532.021,43.5846,60037
531.958,41.3808,60038
531.896,39.1765,60078
531.834,36.9716,60006
531.771,34.7663,60027
531.709,32.5604,60100
531.647,30.3541,60048
531.584,28.1472,60020
531.522,25.9398,60017
531.459,23.7318,60059
531.397,21.5234,60019
531.335,19.3144,60060
531.272,17.1049,60012
531.21,14.8949,60067
531.148,12.6844,60134
531.085,10.4734,60131
531.023,8.26182,60280
530.96,6.04974,60443
530.898,3.83714,86646
530.836,1.62402,470984
530.773,-0.589617,1398079
530.711,-2.80378,210689
547.364,570.458,59970
547.301,568.376,60252
547.239,566.294,60154
547.177,564.211,60181
547.114,562.128,60296
547.052,560.044,60208
546.99,557.959,60315
546.927,555.875,60338
546.865,553.789,60347
546.802,551.704,60377
546.74,549.617,60494
546.678,547.531,60603
546.615,545.443,60481
546.553,543.356,60730
546.491,541.268,60966
546.428,539.179,61053
546.366,537.09,61285
546.304,535,61864
546.241,532.91,62794
546.179,530.82,65073
546.116,528.729,71948
546.054,526.637,93098
545.992,524.545,108232
545.929,522.453,98641
545.867,520.36,80849
545.805,518.266,70386
545.742,516.173,64966
545.68,514.078,62559
545.617,511.983,61704
545.555,509.888,61214
545.493,507.792,61012
545.43,505.696,60824
545.368,503.599,60691
545.306,501.502,60559
545.243,499.404,60430
545.181,497.306,60487
545.119,495.207,60430
545.056,493.108,60481
544.994,491.009,60407
544.931,488.909,60268
544.869,486.808,60290
544.807,484.707,60274
544.744,482.605,60187
544.682,480.503,60291
544.62,478.401,60230
544.557,476.298,60303
544.495,474.194,60223
544.432,472.09,60209
544.37,469.986,60129
544.308,467.881,60120
544.245,465.776,60205
544.183,463.67,60166
544.121,461.563,60142
544.058,459.456,60175
543.996,457.349,60227
543.933,455.241,60178
543.871,453.133,60243
543.809,451.024,60197
543.746,448.915,60220
543.684,446.805,60153
543.622,444.695,60226
543.559,442.584,60255
543.497,440.473,60247
543.435,438.361,60337
543.372,436.249,60402
543.31,434.136,60422
543.247,432.023,60484
543.185,429.91,60269
543.123,427.795,60344
543.06,425.681,60321
542.998,423.566,60315
542.936,421.45,60272
542.873,419.334,60340
542.811,417.218,60398
542.748,415.1,60283
542.686,412.983,60376
542.624,410.865,60359
542.561,408.746,60291
542.499,406.627,60339
542.437,404.508,60271
542.374,402.388,60363
542.312,400.268,60342
542.249,398.147,60302
542.187,396.025,60330
542.125,393.903,60377
542.062,391.781,60329
542.0,389.658,60345
541.938,387.535,60402
541.875,385.411,60319
541.813,383.286,60307
541.751,381.162,60363
541.688,379.036,60347
541.626,376.91,60398
541.563,374.784,60287
541.501,372.657,60402
541.439,370.53,60398
541.376,368.402,60427
541.314,366.274,60385
541.252,364.145,60282
541.189,362.016,60346
541.127,359.886,60412
541.064,357.756,60486
541.002,355.625,60538
540.94,353.494,60452
540.877,351.362,60344
540.815,349.23,60382
540.753,347.097,60449
540.69,344.964,60479
540.628,342.83,60438
540.565,340.696,60380
540.503,338.562,60444
540.441,336.426,60499
540.378,334.291,60493
540.316,332.155,60550
540.254,330.018,60532
540.191,327.881,60557
540.129,325.743,60576
540.067,323.605,60490
540.004,321.467,60604
539.942,319.327,60617
539.879,317.188,60649
539.817,315.048,60533
539.755,312.907,60703
539.692,310.766,60746
539.63,308.625,60790
539.568,306.482,60954
539.505,304.34,60960
539.443,302.197,61016
539.38,300.053,60883
539.318,297.909,60855
539.256,295.765,60777
539.193,293.62,60879
539.131,291.474,60739
539.069,289.328,60485
539.006,287.181,60582
538.944,285.034,60584
538.881,282.887,60607
538.819,280.739,60507
538.757,278.59,60668
538.694,276.441,60566
538.632,274.292,60516
538.57,272.142,60446
538.507,269.991,60536
538.445,267.84,60319
538.383,265.689,60304
538.32,263.537,60235
538.258,261.384,60079
538.195,259.231,60194
538.133,257.078,60076
538.071,254.924,60039
538.008,252.769,60089
537.946,250.614,59988
537.884,248.459,60021
537.821,246.303,60056
537.759,244.146,60045
537.696,241.989,59993
537.634,239.832,59895
537.572,237.674,60024
537.509,235.515,59977
537.447,233.356,59934
537.385,231.197,60025
537.322,229.037,59992
537.26,226.876,60032
537.198,224.715,59965
537.135,222.554,59971
537.073,220.392,59982
537.01,218.229,60048
536.948,216.066,59983
536.886,213.902,59958
536.823,211.738,60022
536.761,209.574,60006
536.699,207.409,59960
536.636,205.243,60001
536.574,203.077,59983
536.511,200.911,59921
536.449,198.744,60040
536.387,196.576,59974
536.324,194.408,59984
536.262,192.24,59956
536.2,190.07,59951
536.137,187.901,59959
536.075,185.731,60032
536.012,183.56,59994
535.95,181.389,60055
535.888,179.218,59978
535.825,177.045,59989
535.763,174.873,59992
535.701,172.7,60006
535.638,170.526,59948
535.576,168.352,59978
535.514,166.177,59976
535.451,164.002,59971
535.389,161.827,59952
535.326,159.65,59967
535.264,157.474,59966
535.202,155.297,60010
535.139,153.119,59975
535.077,150.941,60006
535.015,148.762,59990
534.952,146.583,60013
534.89,144.403,59916
534.827,142.223,59933
534.765,140.042,59961
534.703,137.861,59938
534.64,135.679,59974
534.578,133.497,59949
534.516,131.314,59982
534.453,129.131,59982
534.391,126.947,59970
534.328,124.763,59904
534.266,122.578,59988
534.204,120.393,59900
534.141,118.207,59957
534.079,116.021,59911
534.017,113.834,60024
533.954,111.647,59937
533.892,109.459,59978
533.83,107.27,59986
533.767,105.082,59874
533.705,102.892,60018
533.642,100.702,60043
533.58,98.5118,60020
533.518,96.3209,59982
533.455,94.1295,59934
533.393,91.9375,59921
533.331,89.745,59885
533.268,87.5521,60078
533.206,85.3586,60050
533.143,83.1646,59940
533.081,80.9701,59988
533.019,78.775,60016
532.956,76.5795,59938
532.894,74.3834,60084
532.832,72.1869,60002
532.769,69.9898,59900
532.707,67.7922,59960
532.644,65.5941,60075
532.582,63.3954,59968
532.52,61.1963,59948
532.457,58.9966,59937
532.395,56.7964,59995
532.333,54.5958,59999
532.27,52.3945,60044
532.208,50.1928,60078
532.146,47.9906,60027
532.083,45.7878,60094
532.021,43.5846,59993
531.958,41.3808,60050
531.896,39.1765,59980
531.834,36.9716,59996
531.771,34.7663,59983
531.709,32.5604,60014
531.647,30.3541,60082
531.584,28.1472,59999
531.522,25.9398,60017
531.459,23.7318,60122
531.397,21.5234,60021
531.335,19.3144,59949
531.272,17.1049,60087
531.21,14.8949,60196
531.148,12.6844,60115
531.085,10.4734,60133
531.023,8.26182,60194
530.96,6.04974,60385
530.898,3.83714,86307
530.836,1.62402,472498
530.773,-0.589617,1388811
530.711,-2.80378,210956
530.661,-4.57548,76271