File: tomke/20240809/raw_data/Si_onTiO2_0mA_30mW_30sec_3acc_545nm_bg.txt
Wavelength(nm), Raman shift(cm^-1), Intensity(counts)
553.364,768.549,59786
553.326,767.327,60036
553.289,766.105,60078
553.252,764.882,59994
553.214,763.659,59942
553.177,762.437,59968
553.139,761.214,60037
553.102,759.99,59960
553.064,758.767,60063
553.027,757.544,60053
552.99,756.32,60013
552.952,755.096,60052
552.915,753.872,59986
552.877,752.648,59940
552.84,751.424,59931
552.802,750.199,59970
552.765,748.974,60002
552.728,747.75,60028
552.69,746.525,59929
552.653,745.299,59954
552.615,744.074,60031
552.578,742.849,59972
552.541,741.623,59966
552.503,740.397,60016
552.466,739.171,59969
552.428,737.945,59993
552.391,736.719,59997
552.353,735.492,59934
552.316,734.266,59989
552.279,733.039,60025
552.241,731.812,59963
552.204,730.585,60055
552.166,729.357,59949
552.129,728.13,60023
552.091,726.902,59992
552.054,725.674,60064
552.017,724.446,60025
551.979,723.218,60026
551.942,721.99,59993
551.904,720.761,60058
551.867,719.533,59962
551.83,718.304,59939
551.792,717.075,59974
551.755,715.846,60050
551.717,714.616,60014
551.68,713.387,59973
551.642,712.157,59950
551.605,710.927,60037
551.568,709.697,59992
551.53,708.467,59971
551.493,707.237,60065
551.455,706.006,60087
551.418,704.776,59993
551.38,703.545,60023
551.343,702.314,60112
551.306,701.083,60042
551.268,699.852,59969
551.231,698.62,59936
551.193,697.388,60014
551.156,696.157,59993
551.119,694.925,60017
551.081,693.692,60143
551.044,692.46,60035
551.006,691.228,59948
550.969,689.995,59939
550.931,688.762,60058
550.894,687.529,60109
550.857,686.296,59954
550.819,685.063,60026
550.782,683.829,60036
550.744,682.595,60002
550.707,681.362,59968
550.669,680.128,60008
550.632,678.893,59947
550.595,677.659,59893
550.557,676.425,60056
550.52,675.19,60010
550.482,673.955,60028
550.445,672.72,60001
550.407,671.485,59945
550.37,670.25,60034
550.333,669.014,60053
550.295,667.778,60014
550.258,666.543,59990
550.22,665.306,59988
550.183,664.07,60060
550.146,662.834,59961
550.108,661.597,59974
550.071,660.361,60042
550.033,659.124,59964
549.996,657.887,59982
549.958,656.65,60012
549.921,655.412,60069
549.884,654.175,59890
549.846,652.937,59970
549.809,651.699,60021
549.771,650.461,60045
549.734,649.223,59954
549.696,647.985,60033
549.659,646.746,59987
549.622,645.507,60033
549.584,644.268,60008
549.547,643.029,60034
549.509,641.79,59948
549.472,640.551,60017
549.435,639.311,59901
549.397,638.072,59980
549.36,636.832,59996
549.322,635.592,59959
549.285,634.351,59921
549.247,633.111,59985
549.21,631.87,59984
549.173,630.63,60050
549.135,629.389,60015
549.098,628.148,59997
549.06,626.906,59932
549.023,625.665,60011
548.985,624.423,59982
548.948,623.182,60023
548.911,621.94,59969
548.873,620.698,60020
548.836,619.455,59983
548.798,618.213,60079
548.761,616.97,59947
548.723,615.728,59974
548.686,614.485,60009
548.649,613.242,59988
548.611,611.998,59965
548.574,610.755,60004
548.536,609.511,59925
548.499,608.267,59905
548.462,607.023,59966
548.424,605.779,59994
548.387,604.535,59978
548.349,603.291,60034
548.312,602.046,60027
548.274,600.801,59986
548.237,599.556,59890
548.2,598.311,59906
548.162,597.066,60030
548.125,595.82,59966
548.087,594.575,60018
548.05,593.329,60020
548.012,592.083,59988
547.975,590.837,59967
547.938,589.59,59982
547.9,588.344,60039
547.863,587.097,60006
547.825,585.85,59996
547.788,584.603,59915
547.751,583.356,59999
547.713,582.109,59895
547.676,580.861,59899
547.638,579.613,59964
547.601,578.365,60041
547.563,577.117,60058
547.526,575.869,60047
547.489,574.621,59945
547.451,573.372,60032
547.414,572.124,59979
547.376,570.875,59963
547.339,569.626,60038
547.301,568.376,59986
547.264,567.127,60025
547.227,565.877,60017
547.189,564.628,59977
547.152,563.378,59976
547.114,562.128,60026
547.077,560.877,60033
547.04,559.627,59964
547.002,558.376,59978
546.965,557.126,59971
546.927,555.875,59985
546.89,554.623,59953
546.852,553.372,60056
546.815,552.121,60080
546.778,550.869,59996
546.74,549.617,59962
546.703,548.365,59920
546.665,547.113,59970
546.628,545.861,59974
546.59,544.608,59979
546.553,543.356,60089
546.516,542.103,59927
546.478,540.85,59998
546.441,539.597,59917
546.403,538.343,59897
546.366,537.09,60053
546.328,535.836,59956
546.291,534.582,59979
546.254,533.328,60059
546.216,532.074,59968
546.179,530.82,59990
546.141,529.565,60093
546.104,528.31,60033
546.067,527.056,59979
546.029,525.8,60000
545.992,524.545,60072
545.954,523.29,60088
545.917,522.034,59993
545.879,520.778,60089
545.842,519.523,59971
545.805,518.266,60042
545.767,517.01,59972
545.73,515.754,60054
545.692,514.497,59976
545.655,513.24,60000
545.617,511.983,59944
545.58,510.726,59922
545.543,509.469,59967
545.505,508.211,60080
545.468,506.954,59978
545.43,505.696,59943
545.393,504.438,60028
545.356,503.18,60040
545.318,501.922,60046
545.281,500.663,59996
545.243,499.404,59941
545.206,498.145,59991
545.168,496.886,59974
545.131,495.627,59956
545.094,494.368,60055
545.056,493.108,60013
545.019,491.849,59977
544.981,490.589,60008
544.944,489.329,59985
544.906,488.068,60018
544.869,486.808,59969
544.832,485.547,60005
544.794,484.287,60046
544.757,483.026,60069
544.719,481.765,60002
544.682,480.503,60101
544.644,479.242,60035
544.607,477.98,59954
544.57,476.718,59989
544.532,475.456,60024
544.495,474.194,59914
544.457,472.932,59905
544.42,471.669,60042
544.383,470.407,59999
544.345,469.144,59952
544.308,467.881,60017
544.27,466.618,59899
544.233,465.354,60036
544.195,464.091,59938
544.158,462.827,59999
544.121,461.563,60098
544.083,460.299,60061
544.046,459.035,60031
544.008,457.771,59989
543.971,456.506,60077
543.933,455.241,60094
543.896,453.976,60023
543.859,452.711,59971
543.821,451.446,59976
543.784,450.18,60015
543.746,448.915,60050
543.709,447.649,60023
543.672,446.383,59987
543.634,445.117,59941
543.597,443.851,59950
543.559,442.584,60020
543.522,441.317,60049
543.484,440.051,59959
543.447,438.784,59944
543.41,437.516,60042
543.372,436.249,60014
543.335,434.981,60007
543.297,433.714,60078
543.26,432.446,59973
543.222,431.178,59993
543.185,429.91,59989
543.148,428.641,59940
543.11,427.373,59961
543.073,426.104,60026
543.035,424.835,60004
542.998,423.566,59910
542.96,422.296,60025
542.923,421.027,60031
542.886,419.757,59984
542.848,418.488,60052
542.811,417.218,60003
542.773,415.947,60070
542.736,414.677,59999
542.699,413.407,59980
542.661,412.136,60004
542.624,410.865,60053
542.586,409.594,59961
542.549,408.323,60069
542.511,407.051,60015
542.474,405.78,59934
542.437,404.508,60037
542.399,403.236,59982
542.362,401.964,59977
542.324,400.692,60035
542.287,399.419,60031
542.249,398.147,60036
542.212,396.874,59934
542.175,395.601,60042
542.137,394.328,60036
542.1,393.054,59955
542.062,391.781,60006
542.025,390.507,59963
541.988,389.233,60033
541.95,387.959,60049
541.913,386.685,59977
541.875,385.411,59987
541.838,384.136,59916
541.8,382.861,60013
541.763,381.587,59972
541.726,380.311,59974
541.688,379.036,60020
541.651,377.761,60014
541.613,376.485,59989
541.576,375.209,60067
541.538,373.933,59973
541.501,372.657,60023
541.464,371.381,60022
541.426,370.104,60029
541.389,368.828,59987
541.351,367.551,59972
541.314,366.274,59966
541.277,364.997,59937
541.239,363.719,59963
541.202,362.442,59936
541.164,361.164,59981
541.127,359.886,60091
541.089,358.608,60041
541.052,357.33,59987
541.015,356.051,60025
540.977,354.773,60076
540.94,353.494,60042
540.902,352.215,59960
540.865,350.936,59965
540.827,349.657,60002
540.79,348.377,59931
540.753,347.097,60020
540.715,345.817,59952
540.678,344.537,59948
540.64,343.257,59988
540.603,341.977,59917
540.565,340.696,59946
540.528,339.416,60085
540.491,338.135,60104
540.453,336.854,59999
540.416,335.572,59986
540.378,334.291,60034
540.341,333.009,59942
540.304,331.727,59945
540.266,330.445,59967
540.229,329.163,59988
540.191,327.881,60076
540.154,326.598,59980
540.116,325.316,59980
540.079,324.033,60053
540.042,322.75,60036
540.004,321.467,59975
539.967,320.183,59965
539.929,318.9,60011
539.892,317.616,60013
539.854,316.332,59915
539.817,315.048,59944
539.78,313.763,59899
539.742,312.479,59968
539.705,311.194,59967
539.667,309.91,59997
539.63,308.625,60000
539.593,307.339,59965
539.555,306.054,59974
539.518,304.768,59959
539.48,303.483,59986
539.443,302.197,59959
539.405,300.911,60040
539.368,299.624,60034
539.331,298.338,59964
539.293,297.051,60057
539.256,295.765,59997
539.218,294.478,60011
539.181,293.191,59945
539.143,291.903,59940
539.106,290.616,60073
539.069,289.328,59957
539.031,288.04,59961
538.994,286.752,59921
538.956,285.464,59917
538.919,284.175,60051
538.881,282.887,60004
538.844,281.598,60029
538.807,280.309,59988
538.769,279.02,59943
538.732,277.731,59942
538.694,276.441,59978
538.657,275.152,60007
538.62,273.862,59974
538.582,272.572,60015
538.545,271.282,59943
538.507,269.991,59963
538.47,268.701,59983
538.432,267.41,59940
538.395,266.119,59984
538.358,264.828,60039
538.32,263.537,60021
538.283,262.245,60029
538.245,260.954,59999
538.208,259.662,60016
538.17,258.37,59960
538.133,257.078,59990
538.096,255.785,60048
538.058,254.493,59984
538.021,253.2,60105
537.983,251.907,60038
537.946,250.614,59939
537.909,249.321,59976
537.871,248.028,59979
537.834,246.734,60059
537.796,245.44,59944
537.759,244.146,60065
537.721,242.852,59971
537.684,241.558,59947
537.647,240.263,60021
537.609,238.969,60008
537.572,237.674,59950
537.534,236.379,60045
537.497,235.083,59948
537.459,233.788,59998
537.422,232.492,59980
537.385,231.197,60019
537.347,229.901,60004
537.31,228.605,60005
537.272,227.308,60019
537.235,226.012,60024
537.198,224.715,59963
537.16,223.418,60034
537.123,222.121,60048
537.085,220.824,59996
537.048,219.527,60005
537.01,218.229,60021
536.973,216.931,59975
536.936,215.633,59930
536.898,214.335,59992
536.861,213.037,60058
536.823,211.738,59986
536.786,210.44,59976
536.748,209.141,60005
536.711,207.842,60060
536.674,206.543,59990
553.351,768.142,59897
553.314,766.92,60020
553.277,765.697,60139
553.239,764.475,60027
553.202,763.252,60000
553.164,762.029,60007
553.127,760.806,60040
553.089,759.583,60104
553.052,758.359,60046
553.015,757.136,59990
552.977,755.912,60025
552.94,754.688,60038
552.902,753.464,60013
552.865,752.24,60038
552.827,751.015,60002
552.79,749.791,59975
552.753,748.566,59958
552.715,747.341,60045
552.678,746.116,60038
552.64,744.891,60030
552.603,743.666,60062
552.565,742.44,60044
552.528,741.214,60053
552.491,739.989,60069
552.453,738.762,59984
552.416,737.536,60004
552.378,736.31,60083
552.341,735.083,59996
552.304,733.857,60098
552.266,732.63,60021
552.229,731.403,59928
552.191,730.175,59960
552.154,728.948,60059
552.116,727.721,59934
552.079,726.493,60017
552.042,725.265,59961
552.004,724.037,59972
551.967,722.809,59959
551.929,721.58,60008
551.892,720.352,59952
551.854,719.123,60010
551.817,717.894,60038
551.78,716.665,60006
551.742,715.436,60079
551.705,714.207,59979
551.667,712.977,59989
551.63,711.747,59998
551.593,710.517,60052
551.555,709.287,60073
551.518,708.057,60066
551.48,706.827,60039
551.443,705.596,59951
551.405,704.366,59990
551.368,703.135,59942
551.331,701.904,60061
551.293,700.672,59971
551.256,699.441,59942
551.218,698.21,59976
551.181,696.978,59998
551.143,695.746,59915
551.106,694.514,59971
551.069,693.282,59899
551.031,692.049,59936
550.994,690.817,59998
550.956,689.584,60053
550.919,688.351,60026
550.881,687.118,60013
550.844,685.885,60027
550.807,684.651,59981
550.769,683.418,59992
550.732,682.184,60004
550.694,680.95,60090
550.657,679.716,60067
550.62,678.482,59903
550.582,677.248,60020
550.545,676.013,59951
550.507,674.778,59929
550.47,673.543,60102
550.432,672.308,59998
550.395,671.073,60088
550.358,669.838,59916
550.32,668.602,59992
550.283,667.366,60007
550.245,666.131,59963
550.208,664.894,59993
550.17,663.658,60003
550.133,662.422,60073
550.096,661.185,60030
550.058,659.948,60031
550.021,658.712,60035
549.983,657.474,60058
549.946,656.237,59917
549.909,655,59905
549.871,653.762,59921
549.834,652.524,59964
549.796,651.287,59942
549.759,650.048,60087
549.721,648.81,59928
549.684,647.572,60024
549.647,646.333,59976
549.609,645.094,59991
549.572,643.855,60078
549.534,642.616,59892
549.497,641.377,59917
549.459,640.138,59978
549.422,638.898,60007
549.385,637.658,60042
549.347,636.418,59955
549.31,635.178,60043
549.272,633.938,59906
549.235,632.697,59995
549.198,631.457,59959
549.16,630.216,59961
549.123,628.975,60004
549.085,627.734,59971
549.048,626.493,60022
549.01,625.251,59968
548.973,624.009,60051
548.936,622.768,60053
548.898,621.526,60057
548.861,620.284,60043
548.823,619.041,60014
548.786,617.799,59966
548.748,616.556,59932
548.711,615.313,59985
548.674,614.07,59952
548.636,612.827,59936
548.599,611.584,59987
548.561,610.34,59934
548.524,609.097,59969
548.486,607.853,60040
548.449,606.609,59976
548.412,605.365,60033
548.374,604.12,59979
548.337,602.876,59965
548.299,601.631,60031
548.262,600.386,59962
548.225,599.141,59988
548.187,597.896,59941
548.15,596.651,60043
548.112,595.405,60002
548.075,594.159,60016
548.037,592.913,60021
548.0,591.667,59956
547.963,590.421,60002
547.925,589.175,60012
547.888,587.928,60082
547.85,586.681,60029
547.813,585.434,59995
547.775,584.187,60036
547.738,582.94,60013
547.701,581.693,60010
547.663,580.445,60036
547.626,579.197,60020
547.588,577.949,60124
547.551,576.701,60026
547.514,575.453,59980
547.476,574.205,59952
547.439,572.956,60039
547.401,571.707,60126
547.364,570.458,60026
547.326,569.209,59971
547.289,567.96,59972
547.252,566.71,60045
547.214,565.461,59917
547.177,564.211,59995
547.139,562.961,60013
547.102,561.711,60047
547.064,560.461,59897
547.027,559.21,60026
546.99,557.959,60006
546.952,556.709,59958
546.915,555.458,59988
546.877,554.206,60033
546.84,552.955,59990
546.802,551.704,59985
546.765,550.452,60004
546.728,549.2,59972
546.69,547.948,60017
546.653,546.696,59989
546.615,545.443,59987
546.578,544.191,59989
546.541,542.938,59928
546.503,541.685,59921
546.466,540.432,59935
546.428,539.179,60039
546.391,537.926,60026
546.353,536.672,60065
546.316,535.418,59991
546.279,534.164,60004
546.241,532.91,60002
546.204,531.656,59943
546.166,530.402,59980
546.129,529.147,59946
546.091,527.892,60065
546.054,526.637,60020
546.017,525.382,60023
545.979,524.127,60052
545.942,522.871,60034
545.904,521.616,60125
545.867,520.36,60054
545.83,519.104,59932
545.792,517.848,59992
545.755,516.591,59989
545.717,515.335,59995
545.68,514.078,59997
545.642,512.821,59981
545.605,511.564,59988
545.568,510.307,59985
545.53,509.05,59985
545.493,507.792,59999
545.455,506.535,59989
545.418,505.277,59908
545.38,504.019,60009
545.343,502.76,59930
545.306,501.502,60054
545.268,500.243,59948
545.231,498.985,59974
545.193,497.726,59975
545.156,496.467,59932
545.119,495.207,60017
545.081,493.948,59973
545.044,492.688,60002
545.006,491.429,60009
544.969,490.169,60038
544.931,488.909,59981
544.894,487.648,60000
544.857,486.388,59964
544.819,485.127,59993
544.782,483.866,59933
544.744,482.605,60038
544.707,481.344,60038
544.669,480.083,60024
544.632,478.821,59963
544.595,477.56,60060
544.557,476.298,60027
544.52,475.036,59999
544.482,473.774,60046
544.445,472.511,59970
544.407,471.249,60101
544.37,469.986,59999
544.333,468.723,60092
544.295,467.46,59961
544.258,466.197,59899
544.22,464.933,59929
544.183,463.67,59984
544.146,462.406,60098
544.108,461.142,60003
544.071,459.878,60026
544.033,458.614,60109
543.996,457.349,59975
543.958,456.084,59958
543.921,454.82,59984
543.884,453.555,60041
543.846,452.289,59957
543.809,451.024,59942
543.771,449.759,60068
543.734,448.493,59916
543.696,447.227,59985
543.659,445.961,59993
543.622,444.695,60011
543.584,443.428,59925
543.547,442.162,60011
543.509,440.895,59996
543.472,439.628,60014
543.435,438.361,60008
543.397,437.094,60045
543.36,435.827,59976
543.322,434.559,60049
543.285,433.291,60040
543.247,432.023,60011
543.21,430.755,60042
543.173,429.487,60008
543.135,428.218,60010
543.098,426.95,59981
543.06,425.681,59995
543.023,424.412,59936
542.985,423.143,59990
542.948,421.873,59950
542.911,420.604,60002
542.873,419.334,60000
542.836,418.064,59975
542.798,416.794,60000
542.761,415.524,60003
542.723,414.254,59948
542.686,412.983,60023
542.649,411.712,59949
542.611,410.441,59985
542.574,409.17,59950
542.536,407.899,59992
542.499,406.627,60038
542.462,405.356,60023
542.424,404.084,60053
542.387,402.812,60010
542.349,401.54,59989
542.312,400.268,60082
542.274,398.995,60035
542.237,397.722,60091
542.2,396.45,59945
542.162,395.176,60035
542.125,393.903,59892
542.087,392.63,59971
542.05,391.356,59993
542.012,390.083,60000
541.975,388.809,60032
541.938,387.535,60025
541.9,386.26,60003
541.863,384.986,60000
541.825,383.711,60033
541.788,382.437,59969
541.751,381.162,60015
541.713,379.886,59913
541.676,378.611,59980
541.638,377.336,59958
541.601,376.06,59985
541.563,374.784,59970
541.526,373.508,59893
541.489,372.232,59949
541.451,370.955,60057
541.414,369.679,59894
541.376,368.402,59939
541.339,367.125,60053
541.301,365.848,59981
541.264,364.571,59908
541.227,363.294,60051
541.189,362.016,59971
541.152,360.738,60044
541.114,359.46,59953
541.077,358.182,59961
541.04,356.904,59934
541.002,355.625,59970
540.965,354.347,59979
540.927,353.068,60026
540.89,351.789,59936
540.852,350.509,60043
540.815,349.23,59997
540.778,347.95,59986
540.74,346.671,59959
540.703,345.391,60027
540.665,344.111,60024
540.628,342.83,59941
540.59,341.55,59966
540.553,340.269,59977
540.516,338.989,60034
540.478,337.708,60036
540.441,336.426,59997
540.403,335.145,59997
540.366,333.864,60039
540.328,332.582,59990
540.291,331.3,59878
540.254,330.018,60077
540.216,328.736,60061
540.179,327.453,60026
540.141,326.171,60013
540.104,324.888,60020
540.067,323.605,60015
540.029,322.322,60075
539.992,321.039,60044
539.954,319.755,60034
539.917,318.472,59975
539.879,317.188,59977
539.842,315.904,59951
539.805,314.62,59986
539.767,313.335,59983
539.73,312.051,59893
539.692,310.766,60039
539.655,309.481,60029
539.617,308.196,60001
539.58,306.911,59965
539.543,305.625,60032
539.505,304.34,60016
539.468,303.054,60033
539.43,301.768,60018
539.393,300.482,59990
539.356,299.196,59920
539.318,297.909,59965
539.281,296.623,60022
539.243,295.336,59990
539.206,294.049,59950
539.168,292.761,59971
539.131,291.474,60005
539.094,290.186,59947
539.056,288.899,60030
539.019,287.611,59988
538.981,286.323,59985
538.944,285.034,59912
538.906,283.746,60100
538.869,282.457,59990
538.832,281.169,60005
538.794,279.88,59961
538.757,278.59,59972
538.719,277.301,59954
538.682,276.011,59982
538.644,274.722,60044
538.607,273.432,60018
538.57,272.142,60082
538.532,270.852,59969
538.495,269.561,60050
538.457,268.271,59982
538.42,266.98,59971
538.383,265.689,60032
538.345,264.398,59960
538.308,263.106,59988
538.27,261.815,59910
538.233,260.523,59958
538.195,259.231,59942
538.158,257.939,59967
538.121,256.647,59972
538.083,255.355,59995
538.046,254.062,59996
538.008,252.769,60034
537.971,251.476,59967
537.933,250.183,59971
537.896,248.89,59978
537.859,247.596,60024
537.821,246.303,59974
537.784,245.009,60019
537.746,243.715,60084
537.709,242.421,59938
537.672,241.126,59933
537.634,239.832,59975
537.597,238.537,60031
537.559,237.242,59985
537.522,235.947,59973
537.484,234.652,60006
537.447,233.356,60001
537.41,232.061,59992
537.372,230.765,60007
537.335,229.469,60061
537.297,228.172,60028
537.26,226.876,59993
537.222,225.58,60011
537.185,224.283,60034
537.148,222.986,59966
537.11,221.689,59963
537.073,220.392,60024
537.035,219.094,60060
536.998,217.796,59972
536.96,216.499,59991
536.923,215.201,60010
536.886,213.902,60041
536.848,212.604,59933
536.811,211.306,60046
536.773,210.007,59999
536.736,208.708,60000
536.699,207.409,60027
536.661,206.11,60000
553.339,767.734,59918
553.301,766.512,60153
553.264,765.29,60030
553.227,764.067,59989
553.189,762.844,59975
553.152,761.621,59979
553.114,760.398,60107
553.077,759.175,59963
553.04,757.951,59926
553.002,756.728,59996
552.965,755.504,59984
552.927,754.28,60012
552.89,753.056,60005
552.852,751.832,60054
552.815,750.607,59935
552.778,749.383,60004
552.74,748.158,59924
552.703,746.933,60044
552.665,745.708,60011
552.628,744.483,59993
552.59,743.257,60138
552.553,742.032,60058
552.516,740.806,60047
552.478,739.58,60033
552.441,738.354,60001
552.403,737.127,59930
552.366,735.901,60006
552.328,734.674,60060
552.291,733.448,59972
552.254,732.221,60076
552.216,730.994,59938
552.179,729.766,59976
552.141,728.539,59983
552.104,727.311,59986
552.067,726.084,60008
552.029,724.856,59936
551.992,723.628,59974
551.954,722.399,59971
551.917,721.171,60032
551.879,719.942,59984
551.842,718.713,59993
551.805,717.485,59965
551.767,716.255,60029
551.73,715.026,60100
551.692,713.797,60016
551.655,712.567,60092
551.617,711.337,59986
551.58,710.107,60004
551.543,708.877,60016
551.505,707.647,59959
551.468,706.417,59966
551.43,705.186,59992
551.393,703.955,59959
551.356,702.724,60031
551.318,701.493,59923
551.281,700.262,60036
551.243,699.031,59958
551.206,697.799,60036
551.168,696.567,59905
551.131,695.335,60010
551.094,694.103,59911
551.056,692.871,60056
551.019,691.638,60020
550.981,690.406,59982
550.944,689.173,59956
550.906,687.94,59960
550.869,686.707,60025
550.832,685.474,59959
550.794,684.24,59992
550.757,683.007,60024
550.719,681.773,59959
550.682,680.539,59989
550.644,679.305,59980
550.607,678.071,60023
550.57,676.836,60057
550.532,675.602,60054
550.495,674.367,60022
550.457,673.132,60027
550.42,671.897,60024
550.383,670.661,60032
550.345,669.426,59934
550.308,668.19,60034
550.27,666.954,60076
550.233,665.719,59968
550.195,664.482,60056
550.158,663.246,60021
550.121,662.01,60037
550.083,660.773,60035
550.046,659.536,59993
550.008,658.299,59958
549.971,657.062,60002
549.933,655.825,59995
549.896,654.587,60022
549.859,653.35,59945
549.821,652.112,60092
549.784,650.874,59983
549.746,649.636,60030
549.709,648.397,60027
549.672,647.159,60077
549.634,645.92,60104
549.597,644.681,59970
549.559,643.442,59919
549.522,642.203,59974
549.484,640.964,60018
549.447,639.724,60001
549.41,638.485,59987
549.372,637.245,60122
549.335,636.005,60053
549.297,634.765,60003
549.26,633.524,59936
549.222,632.284,59986
549.185,631.043,60037
549.148,629.802,59954
549.11,628.561,59996
549.073,627.32,60045
549.035,626.079,59981
548.998,624.837,59958
548.96,623.596,59950
548.923,622.354,59936
548.886,621.112,59955
548.848,619.869,59962
548.811,618.627,60006
548.773,617.385,60001
548.736,616.142,60007
548.699,614.899,60061
548.661,613.656,60026
548.624,612.413,60049
548.586,611.169,59888
548.549,609.926,60102
548.511,608.682,60005
548.474,607.438,59935
548.437,606.194,60078
548.399,604.95,59986
548.362,603.705,59980
548.324,602.461,60003
548.287,601.216,60040
548.249,599.971,60032
548.212,598.726,60039
548.175,597.481,60022
548.137,596.235,59986
548.1,594.99,59968
548.062,593.744,59987
548.025,592.498,60059
547.988,591.252,59943
547.95,590.006,59988
547.913,588.759,59969
547.875,587.513,59909
547.838,586.266,60035
547.8,585.019,60002
547.763,583.772,59934
547.726,582.524,59979
547.688,581.277,59938
547.651,580.029,59928
547.613,578.781,60019
547.576,577.533,59987
547.538,576.285,59946
547.501,575.037,60023
547.464,573.788,59964
547.426,572.54,59978
547.389,571.291,60001
547.351,570.042,60005
547.314,568.793,59994
547.277,567.543,60007
547.239,566.294,59966
547.202,565.044,60055
547.164,563.794,59973
547.127,562.544,59950
547.089,561.294,59970
547.052,560.044,60028
547.015,558.793,59931
546.977,557.543,59997
546.94,556.292,59996
546.902,555.041,59975
546.865,553.789,60017
546.827,552.538,59987
546.79,551.286,60022
546.753,550.035,60023
546.715,548.783,60066
546.678,547.531,59966
546.64,546.278,59979
546.603,545.026,59974
546.565,543.773,60008
546.528,542.521,60006
546.491,541.268,59977
546.453,540.014,59946
546.416,538.761,59890
546.378,537.508,59944
546.341,536.254,59978
546.304,535,59974
546.266,533.746,59991
546.229,532.492,60004
546.191,531.238,59977
546.154,529.983,59980
546.116,528.729,59950
546.079,527.474,60059
546.042,526.219,60074
546.004,524.964,59957
545.967,523.708,60044
545.929,522.453,60054
545.892,521.197,60063
545.854,519.941,59961
545.817,518.685,59998
545.78,517.429,60068
545.742,516.173,59991
545.705,514.916,59986
545.667,513.659,59988
545.63,512.402,59958
545.593,511.145,59977
545.555,509.888,59995
545.518,508.631,60000
545.48,507.373,60039
545.443,506.115,59981
545.405,504.857,60001
545.368,503.599,59932
545.331,502.341,59933
545.293,501.083,59963
545.256,499.824,60040
545.218,498.565,59962
545.181,497.306,59978
545.143,496.047,60016
545.106,494.788,60092
545.069,493.528,60058
545.031,492.268,60033
544.994,491.009,59967
544.956,489.749,60078
544.919,488.488,60024
544.881,487.228,60019
544.844,485.968,60090
544.807,484.707,60021
544.769,483.446,60056
544.732,482.185,60021
544.694,480.924,60019
544.657,479.662,60071
544.62,478.401,60033
544.582,477.139,60053
544.545,475.877,60105
544.507,474.615,59978
544.47,473.353,59949
544.432,472.09,60021
544.395,470.828,59939
544.358,469.565,59966
544.32,468.302,60015
544.283,467.039,59955
544.245,465.776,59947
544.208,464.512,59997
544.17,463.248,60014
544.133,461.985,60062
544.096,460.721,59994
544.058,459.456,59968
544.021,458.192,60050
543.983,456.928,60001
543.946,455.663,60029
543.909,454.398,59926
543.871,453.133,59910
543.834,451.868,59875
543.796,450.602,60018
543.759,449.337,60030
543.721,448.071,59986
543.684,446.805,59996
543.647,445.539,60090
543.609,444.273,60069
543.572,443.006,59946
543.534,441.74,59952
543.497,440.473,59992
543.459,439.206,60150
543.422,437.939,60038
543.385,436.671,60042
543.347,435.404,60070
543.31,434.136,59987
543.272,432.869,59949
543.235,431.601,59989
543.198,430.332,60088
543.16,429.064,60006
543.123,427.795,60040
543.085,426.527,60074
543.048,425.258,60098
543.01,423.989,60022
542.973,422.72,59999
542.936,421.45,59998
542.898,420.181,59971
542.861,418.911,59972
542.823,417.641,60089
542.786,416.371,59951
542.748,415.1,60045
542.711,413.83,60047
542.674,412.559,60013
542.636,411.289,59991
542.599,410.018,60044
542.561,408.746,60042
542.524,407.475,59955
542.486,406.204,60037
542.449,404.932,60026
542.412,403.66,60001
542.374,402.388,59992
542.337,401.116,60011
542.299,399.843,60002
542.262,398.571,59985
542.225,397.298,60064
542.187,396.025,59989
542.15,394.752,60050
542.112,393.479,60021
542.075,392.205,60077
542.037,390.932,60035
542.0,389.658,60024
541.963,388.384,59945
541.925,387.11,59993
541.888,385.836,59936
541.85,384.561,59974
541.813,383.286,60086
541.775,382.012,59982
541.738,380.737,59968
541.701,379.461,59992
541.663,378.186,60018
541.626,376.91,60013
541.588,375.635,60072
541.551,374.359,60014
541.514,373.083,60034
541.476,371.806,60004
541.439,370.53,60033
541.401,369.253,59901
541.364,367.977,60026
541.326,366.7,59987
541.289,365.422,59965
541.252,364.145,59977
541.214,362.868,59988
541.177,361.59,60025
541.139,360.312,59938
541.102,359.034,60033
541.064,357.756,59967
541.027,356.478,59981
540.99,355.199,60057
540.952,353.92,60024
540.915,352.641,59981
540.877,351.362,59998
540.84,350.083,59992
540.802,348.804,59995
540.765,347.524,60038
540.728,346.244,59954
540.69,344.964,60022
540.653,343.684,59915
540.615,342.404,59957
540.578,341.123,60009
540.541,339.842,60025
540.503,338.562,60077
540.466,337.281,60044
540.428,335.999,60003
540.391,334.718,60057
540.353,333.436,59990
540.316,332.155,59862
540.279,330.873,60023
540.241,329.591,60005
540.204,328.308,59907
540.166,327.026,60066
540.129,325.743,60022
540.091,324.46,60023
540.054,323.178,60017
540.017,321.894,59965
539.979,320.611,59913
539.942,319.327,60022
539.904,318.044,59957
539.867,316.76,60016
539.83,315.476,59939
539.792,314.192,59931
539.755,312.907,59946
539.717,311.623,60009
539.68,310.338,59887
539.642,309.053,59997
539.605,307.768,59935
539.568,306.482,60011
539.53,305.197,59995
539.493,303.911,60035
539.455,302.625,60100
539.418,301.339,59918
539.38,300.053,59956
539.343,298.767,60014
539.306,297.48,59977
539.268,296.194,60048
539.231,294.907,59984
539.193,293.62,59987
539.156,292.332,60011
539.119,291.045,59988
539.081,289.757,59987
539.044,288.469,60032
539.006,287.181,60002
538.969,285.893,59942
538.931,284.605,60010
538.894,283.316,60003
538.857,282.028,60034
538.819,280.739,59986
538.782,279.45,60053
538.744,278.161,59899
538.707,276.871,60004
538.669,275.582,60006
538.632,274.292,60029
538.595,273.002,60044
538.557,271.712,59993
538.52,270.421,60031
538.482,269.131,60013
538.445,267.84,60064
538.407,266.549,59973
538.37,265.258,60030
538.333,263.967,59985
538.295,262.676,59960
538.258,261.384,60029
538.22,260.092,59991
538.183,258.801,59917
538.146,257.508,59949
538.108,256.216,59918
538.071,254.924,59970
538.033,253.631,59997
537.996,252.338,59949
537.958,251.045,59968
537.921,249.752,59968
537.884,248.459,59987
537.846,247.165,59967
537.809,245.871,59976
537.771,244.578,59956
537.734,243.283,59957
537.696,241.989,60069
537.659,240.695,60009
537.622,239.4,59960
537.584,238.105,59995
537.547,236.81,59975
537.509,235.515,60044
537.472,234.22,59993
537.435,232.924,59990
537.397,231.629,60000
537.36,230.333,59965
537.322,229.037,59966
537.285,227.74,59952
537.247,226.444,59996
537.21,225.147,60060
537.173,223.851,60035
537.135,222.554,60019
537.098,221.256,59882
537.06,219.959,59903
537.023,218.662,59939
536.985,217.364,59912
536.948,216.066,59967
536.911,214.768,59957
536.873,213.47,59999
536.836,212.171,60002
536.798,210.873,60083
536.761,209.574,60114
536.723,208.275,60028
536.686,206.976,60016
536.661,206.11,59985