File: tomke/20240809/raw_data/Si_onTiO2_70mA_30mW_30sec_5acc_545nm.txt
Wavelength(nm), Raman shift(cm^-1), Intensity(counts)
553.364,768.549,201525
553.301,766.512,201442
553.239,764.475,201286
553.177,762.437,201273
553.114,760.398,200826
553.052,758.359,200144
552.99,756.32,201380
552.927,754.28,201397
552.865,752.24,200056
552.802,750.199,200784
552.74,748.158,200676
552.678,746.116,199607
552.615,744.074,200180
552.553,742.032,200134
552.491,739.989,199625
552.428,737.945,199027
552.366,735.901,199136
552.304,733.857,198280
552.241,731.812,198750
552.179,729.766,198402
552.116,727.721,199398
552.054,725.674,198040
551.992,723.628,198264
551.929,721.58,197829
551.867,719.533,198380
551.805,717.485,198308
551.742,715.436,198103
551.68,713.387,197439
551.617,711.337,198251
551.555,709.287,198262
551.493,707.237,198369
551.43,705.186,197928
551.368,703.135,197493
551.306,701.083,198201
551.243,699.031,197713
551.181,696.978,198848
551.119,694.925,197396
551.056,692.871,197197
550.994,690.817,198068
550.931,688.762,196657
550.869,686.707,197074
550.807,684.651,197155
550.744,682.595,197351
550.682,680.539,196735
550.62,678.482,196420
550.557,676.425,195720
550.495,674.367,195437
550.432,672.308,195828
550.37,670.25,195300
550.308,668.19,194817
550.245,666.131,194547
550.183,664.07,193936
550.121,662.01,194344
550.058,659.948,194638
549.996,657.887,193509
549.933,655.825,192830
549.871,653.762,192702
549.809,651.699,193570
549.746,649.636,193691
549.684,647.572,193233
549.622,645.507,192790
549.559,643.442,192396
549.497,641.377,192409
549.435,639.311,193239
549.372,637.245,193707
549.31,635.178,192998
549.247,633.111,193284
549.185,631.043,192869
549.123,628.975,192592
549.06,626.906,193202
548.998,624.837,192794
548.936,622.768,192799
548.873,620.698,194010
548.811,618.627,192340
548.748,616.556,191640
548.686,614.485,191786
548.624,612.413,191254
548.561,610.34,191656
548.499,608.267,191254
548.437,606.194,190189
548.374,604.12,189900
548.312,602.046,189433
548.249,599.971,188824
548.187,597.896,188419
548.125,595.82,186765
548.062,593.744,187619
548.0,591.667,187455
547.938,589.59,185712
547.875,587.513,186293
547.813,585.434,186018
547.751,583.356,184829
547.688,581.277,184375
547.626,579.197,184247
547.563,577.117,183513
547.501,575.037,183847
547.439,572.956,183200
547.376,570.875,182782
547.314,568.793,182239
547.252,566.71,183533
547.189,564.628,183102
547.127,562.544,182747
547.064,560.461,182708
547.002,558.376,182612
546.94,556.292,181547
546.877,554.206,182213
546.815,552.121,182347
546.753,550.035,182775
546.69,547.948,180864
546.628,545.861,181293
546.565,543.773,181321
546.503,541.685,181331
546.441,539.597,181014
546.378,537.508,180996
546.316,535.418,181121
546.254,533.328,180153
546.191,531.238,180187
546.129,529.147,179313
546.067,527.056,179269
546.004,524.964,178318
545.942,522.871,178298
545.879,520.778,177916
545.817,518.685,177754
545.755,516.591,177657
545.692,514.497,178371
545.63,512.402,178375
545.568,510.307,178885
545.505,508.211,180523
545.443,506.115,181464
545.38,504.019,184409
545.318,501.922,186472
545.256,499.824,186893
545.193,497.726,185421
545.131,495.627,182786
545.069,493.528,181679
545.006,491.429,179651
544.944,489.329,178268
544.881,487.228,178222
544.819,485.127,177260
544.757,483.026,177230
544.694,480.924,177106
544.632,478.821,176284
544.57,476.718,176072
544.507,474.615,175458
544.445,472.511,174980
544.383,470.407,175933
544.32,468.302,175359
544.258,466.197,173407
544.195,464.091,174476
544.133,461.985,173816
544.071,459.878,174068
544.008,457.771,172769
543.946,455.663,173021
543.884,453.555,171669
543.821,451.446,171749
543.759,449.337,171255
543.696,447.227,170810
543.634,445.117,169905
543.572,443.006,170340
543.509,440.895,169601
543.447,438.784,169202
543.385,436.671,169191
543.322,434.559,168428
543.26,432.446,167737
543.198,430.332,168837
543.135,428.218,168416
543.073,426.104,168880
543.01,423.989,168966
542.948,421.873,168519
542.886,419.757,169407
542.823,417.641,168675
542.761,415.524,170141
542.699,413.407,169439
542.636,411.289,169642
542.574,409.17,168482
542.511,407.051,168990
542.449,404.932,169597
542.387,402.812,169038
542.324,400.692,169493
542.262,398.571,168025
542.2,396.45,168635
542.137,394.328,168019
542.075,392.205,167692
542.012,390.083,168174
541.95,387.959,166537
541.888,385.836,166556
541.825,383.711,165840
541.763,381.587,165335
541.701,379.461,165852
541.638,377.336,165020
541.576,375.209,165389
541.514,373.083,164658
541.451,370.955,164404
541.389,368.828,164625
541.326,366.7,164721
541.264,364.571,163699
541.202,362.442,164641
541.139,360.312,164265
541.077,358.182,164225
541.015,356.051,165046
540.952,353.92,163535
540.89,351.789,163129
540.827,349.657,162914
540.765,347.524,163336
540.703,345.391,162260
540.64,343.257,161842
540.578,341.123,160987
540.516,338.989,160585
540.453,336.854,160004
540.391,334.718,158480
540.328,332.582,157902
540.266,330.445,157353
540.204,328.308,156769
540.141,326.171,155807
540.079,324.033,154868
540.017,321.894,155662
539.954,319.755,155465
539.892,317.616,155120
539.83,315.476,155798
539.767,313.335,154977
539.705,311.194,155707
539.642,309.053,155958
539.58,306.911,156415
539.518,304.768,157088
539.455,302.625,156357
539.393,300.482,156177
539.331,298.338,153854
539.268,296.194,152454
539.206,294.049,150747
539.143,291.903,148141
539.081,289.757,147157
539.019,287.611,144758
538.956,285.464,144158
538.894,283.316,142662
538.832,281.169,142130
538.769,279.02,142801
538.707,276.871,142929
538.644,274.722,142987
538.582,272.572,140140
538.52,270.421,134176
538.457,268.271,125739
538.395,266.119,114985
538.333,263.967,104011
538.27,261.815,93753
538.208,259.662,85090
538.146,257.508,77934
538.083,255.355,73149
538.021,253.2,69828
537.958,251.045,67342
537.896,248.89,65821
537.834,246.734,65070
537.771,244.578,64347
537.709,242.421,63969
537.647,240.263,63601
537.584,238.105,63491
537.522,235.947,63233
537.459,233.788,63092
537.397,231.629,63052
537.335,229.469,63063
537.272,227.308,62936
537.21,225.147,62764
537.148,222.986,62873
537.085,220.824,62739
537.023,218.662,62886
536.96,216.499,62815
536.898,214.335,62699
536.836,212.171,62758
536.773,210.007,62751
536.711,207.842,62777
553.364,768.549,205034
553.301,766.512,206269
553.239,764.475,205299
553.177,762.437,205159
553.114,760.398,205358
553.052,758.359,205701
552.99,756.32,205383
552.927,754.28,206085
552.865,752.24,204347
552.802,750.199,204057
552.74,748.158,203932
552.678,746.116,204458
552.615,744.074,204126
552.553,742.032,204235
552.491,739.989,202819
552.428,737.945,203096
552.366,735.901,202094
552.304,733.857,202021
552.241,731.812,202546
552.179,729.766,202375
552.116,727.721,201546
552.054,725.674,202706
551.992,723.628,201685
551.929,721.58,201754
551.867,719.533,201960
551.805,717.485,201875
551.742,715.436,202045
551.68,713.387,202238
551.617,711.337,201295
551.555,709.287,201408
551.493,707.237,201455
551.43,705.186,201526
551.368,703.135,201368
551.306,701.083,201919
551.243,699.031,202177
551.181,696.978,201495
551.119,694.925,202146
551.056,692.871,201565
550.994,690.817,201733
550.931,688.762,201601
550.869,686.707,200352
550.807,684.651,200247
550.744,682.595,199969
550.682,680.539,200423
550.62,678.482,199587
550.557,676.425,200205
550.495,674.367,199785
550.432,672.308,199549
550.37,670.25,199349
550.308,668.19,197986
550.245,666.131,198003
550.183,664.07,198320
550.121,662.01,196268
550.058,659.948,197223
549.996,657.887,197367
549.933,655.825,196999
549.871,653.762,197490
549.809,651.699,196072
549.746,649.636,196051
549.684,647.572,196961
549.622,645.507,195793
549.559,643.442,196624
549.497,641.377,196820
549.435,639.311,196937
549.372,637.245,197414
549.31,635.178,196370
549.247,633.111,197330
549.185,631.043,196678
549.123,628.975,196553
549.06,626.906,196274
548.998,624.837,196214
548.936,622.768,196693
548.873,620.698,196929
548.811,618.627,196174
548.748,616.556,195050
548.686,614.485,194936
548.624,612.413,194751
548.561,610.34,194583
548.499,608.267,194166
548.437,606.194,194314
548.374,604.12,193245
548.312,602.046,194146
548.249,599.971,192783
548.187,597.896,192116
548.125,595.82,192041
548.062,593.744,191356
548.0,591.667,190580
547.938,589.59,188948
547.875,587.513,189865
547.813,585.434,189250
547.751,583.356,188613
547.688,581.277,187502
547.626,579.197,187563
547.563,577.117,187315
547.501,575.037,187158
547.439,572.956,186802
547.376,570.875,186629
547.314,568.793,186754
547.252,566.71,185784
547.189,564.628,185645
547.127,562.544,187176
547.064,560.461,186443
547.002,558.376,185951
546.94,556.292,186031
546.877,554.206,185088
546.815,552.121,184794
546.753,550.035,185599
546.69,547.948,185179
546.628,545.861,184929
546.565,543.773,185338
546.503,541.685,184254
546.441,539.597,184470
546.378,537.508,183763
546.316,535.418,183911
546.254,533.328,183733
546.191,531.238,182599
546.129,529.147,182986
546.067,527.056,182566
546.004,524.964,182318
545.942,522.871,181266
545.879,520.778,180940
545.817,518.685,181022
545.755,516.591,180339
545.692,514.497,182064
545.63,512.402,181179
545.568,510.307,181891
545.505,508.211,183172
545.443,506.115,184587
545.38,504.019,186509
545.318,501.922,189123
545.256,499.824,189913
545.193,497.726,190103
545.131,495.627,186301
545.069,493.528,185020
545.006,491.429,182826
544.944,489.329,181885
544.881,487.228,180818
544.819,485.127,180210
544.757,483.026,179799
544.694,480.924,179258
544.632,478.821,179911
544.57,476.718,179864
544.507,474.615,178257
544.445,472.511,178697
544.383,470.407,179012
544.32,468.302,177946
544.258,466.197,178133
544.195,464.091,177218
544.133,461.985,176964
544.071,459.878,176427
544.008,457.771,176185
543.946,455.663,175577
543.884,453.555,175454
543.821,451.446,175871
543.759,449.337,174237
543.696,447.227,174188
543.634,445.117,174367
543.572,443.006,172493
543.509,440.895,171889
543.447,438.784,172642
543.385,436.671,172092
543.322,434.559,172439
543.26,432.446,172313
543.198,430.332,172065
543.135,428.218,172080
543.073,426.104,171938
543.01,423.989,172300
542.948,421.873,172358
542.886,419.757,173120
542.823,417.641,171836
542.761,415.524,172582
542.699,413.407,172461
542.636,411.289,172587
542.574,409.17,172872
542.511,407.051,171926
542.449,404.932,173003
542.387,402.812,171939
542.324,400.692,172443
542.262,398.571,171802
542.2,396.45,170588
542.137,394.328,170752
542.075,392.205,171207
542.012,390.083,170623
541.95,387.959,170444
541.888,385.836,168949
541.825,383.711,169142
541.763,381.587,168504
541.701,379.461,168760
541.638,377.336,167711
541.576,375.209,167635
541.514,373.083,167283
541.451,370.955,167476
541.389,368.828,167252
541.326,366.7,167049
541.264,364.571,166659
541.202,362.442,166495
541.139,360.312,166331
541.077,358.182,166220
541.015,356.051,166538
540.952,353.92,166675
540.89,351.789,167164
540.827,349.657,166628
540.765,347.524,166155
540.703,345.391,165385
540.64,343.257,164585
540.578,341.123,164733
540.516,338.989,163145
540.453,336.854,162340
540.391,334.718,161155
540.328,332.582,159903
540.266,330.445,160349
540.204,328.308,158706
540.141,326.171,158631
540.079,324.033,157590
540.017,321.894,157685
539.954,319.755,157459
539.892,317.616,158591
539.83,315.476,158145
539.767,313.335,158195
539.705,311.194,158571
539.642,309.053,159101
539.58,306.911,159547
539.518,304.768,159740
539.455,302.625,158263
539.393,300.482,158727
539.331,298.338,157365
539.268,296.194,155732
539.206,294.049,153522
539.143,291.903,150980
539.081,289.757,149253
539.019,287.611,147334
538.956,285.464,145651
538.894,283.316,145078
538.832,281.169,144907
538.769,279.02,144015
538.707,276.871,145630
538.644,274.722,144800
538.582,272.572,142424
538.52,270.421,136140
538.457,268.271,127621
538.395,266.119,116425
538.333,263.967,105413
538.27,261.815,94763
538.208,259.662,85731
538.146,257.508,78493
538.083,255.355,73303
538.021,253.2,69815
537.958,251.045,67655
537.896,248.89,66212
537.834,246.734,65364
537.771,244.578,64531
537.709,242.421,64111
537.647,240.263,63742
537.584,238.105,63791
537.522,235.947,63411
537.459,233.788,63208
537.397,231.629,63184
537.335,229.469,63140
537.272,227.308,63094
537.21,225.147,62814
537.148,222.986,62978
537.085,220.824,62864
537.023,218.662,63009
536.96,216.499,62951
536.898,214.335,62853
536.836,212.171,62820
536.773,210.007,62932
536.711,207.842,62785
553.364,768.549,203572
553.301,766.512,204036
553.239,764.475,205161
553.177,762.437,205110
553.114,760.398,204821
553.052,758.359,204297
552.99,756.32,203345
552.927,754.28,203740
552.865,752.24,203003
552.802,750.199,203102
552.74,748.158,203018
552.678,746.116,202885
552.615,744.074,202002
552.553,742.032,202880
552.491,739.989,201852
552.428,737.945,202139
552.366,735.901,201617
552.304,733.857,200351
552.241,731.812,201939
552.179,729.766,201759
552.116,727.721,201787
552.054,725.674,201338
551.992,723.628,201327
551.929,721.58,200636
551.867,719.533,201323
551.805,717.485,200925
551.742,715.436,201817
551.68,713.387,200837
551.617,711.337,200912
551.555,709.287,200102
551.493,707.237,201318
551.43,705.186,201317
551.368,703.135,201113
551.306,701.083,200329
551.243,699.031,200777
551.181,696.978,201057
551.119,694.925,200627
551.056,692.871,200366
550.994,690.817,200699
550.931,688.762,199898
550.869,686.707,199703
550.807,684.651,199845
550.744,682.595,198199
550.682,680.539,199062
550.62,678.482,198445
550.557,676.425,198605
550.495,674.367,198423
550.432,672.308,198120
550.37,670.25,197361
550.308,668.19,196743
550.245,666.131,196352
550.183,664.07,196589
550.121,662.01,196711
550.058,659.948,196780
549.996,657.887,195803
549.933,655.825,195542
549.871,653.762,195580
549.809,651.699,195144
549.746,649.636,195961
549.684,647.572,194843
549.622,645.507,195063
549.559,643.442,195123
549.497,641.377,195537
549.435,639.311,195016
549.372,637.245,195598
549.31,635.178,195359
549.247,633.111,195867
549.185,631.043,195693
549.123,628.975,194870
549.06,626.906,195407
548.998,624.837,195565
548.936,622.768,195592
548.873,620.698,195822
548.811,618.627,194986
548.748,616.556,195075
548.686,614.485,194733
548.624,612.413,194842
548.561,610.34,193807
548.499,608.267,193208
548.437,606.194,193211
548.374,604.12,191821
548.312,602.046,192677
548.249,599.971,191965
548.187,597.896,190426
548.125,595.82,190057
548.062,593.744,189820
548.0,591.667,189937
547.938,589.59,189124
547.875,587.513,188471
547.813,585.434,188759
547.751,583.356,186901
547.688,581.277,186769
547.626,579.197,186115
547.563,577.117,186264
547.501,575.037,186164
547.439,572.956,186093
547.376,570.875,185719
547.314,568.793,185125
547.252,566.71,185533
547.189,564.628,185457
547.127,562.544,184916
547.064,560.461,185447
547.002,558.376,185020
546.94,556.292,184317
546.877,554.206,183918
546.815,552.121,184711
546.753,550.035,184870
546.69,547.948,183994
546.628,545.861,183698
546.565,543.773,183992
546.503,541.685,183618
546.441,539.597,182884
546.378,537.508,182754
546.316,535.418,182699
546.254,533.328,182056
546.191,531.238,181795
546.129,529.147,181714
546.067,527.056,181956
546.004,524.964,180682
545.942,522.871,180249
545.879,520.778,180220
545.817,518.685,180542
545.755,516.591,180004
545.692,514.497,180834
545.63,512.402,180645
545.568,510.307,180855
545.505,508.211,182862
545.443,506.115,183743
545.38,504.019,186894
545.318,501.922,188686
545.256,499.824,190033
545.193,497.726,188910
545.131,495.627,186152
545.069,493.528,185082
545.006,491.429,182151
544.944,489.329,181049
544.881,487.228,179663
544.819,485.127,178905
544.757,483.026,178822
544.694,480.924,179272
544.632,478.821,178381
544.57,476.718,177402
544.507,474.615,177567
544.445,472.511,177329
544.383,470.407,177529
544.32,468.302,176624
544.258,466.197,177472
544.195,464.091,176306
544.133,461.985,175801
544.071,459.878,175441
544.008,457.771,175625
543.946,455.663,175075
543.884,453.555,174263
543.821,451.446,174076
543.759,449.337,172746
543.696,447.227,173088
543.634,445.117,172382
543.572,443.006,173122
543.509,440.895,172476
543.447,438.784,171487
543.385,436.671,170508
543.322,434.559,171496
543.26,432.446,171164
543.198,430.332,171111
543.135,428.218,171015
543.073,426.104,170683
543.01,423.989,171648
542.948,421.873,171194
542.886,419.757,171271
542.823,417.641,171462
542.761,415.524,171735
542.699,413.407,171487
542.636,411.289,172194
542.574,409.17,171881
542.511,407.051,171988
542.449,404.932,171420
542.387,402.812,171306
542.324,400.692,170410
542.262,398.571,170401
542.2,396.45,170092
542.137,394.328,169471
542.075,392.205,169531
542.012,390.083,170085
541.95,387.959,168938
541.888,385.836,168710
541.825,383.711,167583
541.763,381.587,167982
541.701,379.461,167354
541.638,377.336,167025
541.576,375.209,166777
541.514,373.083,167184
541.451,370.955,165763
541.389,368.828,166912
541.326,366.7,165814
541.264,364.571,166311
541.202,362.442,166548
541.139,360.312,166591
541.077,358.182,166293
541.015,356.051,165637
540.952,353.92,166410
540.89,351.789,165984
540.827,349.657,166074
540.765,347.524,165084
540.703,345.391,163660
540.64,343.257,163397
540.578,341.123,162754
540.516,338.989,161739
540.453,336.854,160643
540.391,334.718,160135
540.328,332.582,160027
540.266,330.445,159173
540.204,328.308,157974
540.141,326.171,157176
540.079,324.033,158014
540.017,321.894,157275
539.954,319.755,156915
539.892,317.616,157040
539.83,315.476,157823
539.767,313.335,158076
539.705,311.194,158195
539.642,309.053,158430
539.58,306.911,158779
539.518,304.768,158218
539.455,302.625,157765
539.393,300.482,157416
539.331,298.338,156246
539.268,296.194,154823
539.206,294.049,152333
539.143,291.903,150745
539.081,289.757,148487
539.019,287.611,146496
538.956,285.464,145311
538.894,283.316,144346
538.832,281.169,142962
538.769,279.02,144514
538.707,276.871,144286
538.644,274.722,143542
538.582,272.572,140986
538.52,270.421,135328
538.457,268.271,126791
538.395,266.119,116178
538.333,263.967,105075
538.27,261.815,94314
538.208,259.662,85685
538.146,257.508,78558
538.083,255.355,73512
538.021,253.2,70098
537.958,251.045,67418
537.896,248.89,66146
537.834,246.734,65236
537.771,244.578,64537
537.709,242.421,64014
537.647,240.263,63706
537.584,238.105,63695
537.522,235.947,63428
537.459,233.788,63378
537.397,231.629,63227
537.335,229.469,63131
537.272,227.308,63041
537.21,225.147,62942
537.148,222.986,63002
537.085,220.824,62848
537.023,218.662,62797
536.96,216.499,62901
536.898,214.335,62838
536.836,212.171,62729
536.773,210.007,62982
536.711,207.842,62772
553.364,768.549,193124
553.301,766.512,193799
553.239,764.475,193442
553.177,762.437,193829
553.114,760.398,193216
553.052,758.359,193438
552.99,756.32,192755
552.927,754.28,193935
552.865,752.24,192729
552.802,750.199,192404
552.74,748.158,192300
552.678,746.116,191834
552.615,744.074,192284
552.553,742.032,190463
552.491,739.989,191760
552.428,737.945,190993
552.366,735.901,190551
552.304,733.857,191167
552.241,731.812,190809
552.179,729.766,190072
552.116,727.721,189531
552.054,725.674,190335
551.992,723.628,189971
551.929,721.58,190840
551.867,719.533,190201
551.805,717.485,190183
551.742,715.436,190343
551.68,713.387,189979
551.617,711.337,189855
551.555,709.287,190132
551.493,707.237,190335
551.43,705.186,189770
551.368,703.135,189741
551.306,701.083,189984
551.243,699.031,190031
551.181,696.978,189512
551.119,694.925,189145
551.056,692.871,189369
550.994,690.817,190186
550.931,688.762,189222
550.869,686.707,188837
550.807,684.651,188982
550.744,682.595,188657
550.682,680.539,188175
550.62,678.482,188177
550.557,676.425,187766
550.495,674.367,187983
550.432,672.308,187502
550.37,670.25,188193
550.308,668.19,186573
550.245,666.131,187676
550.183,664.07,186361
550.121,662.01,186072
550.058,659.948,186802
549.996,657.887,185795
549.933,655.825,185654
549.871,653.762,185712
549.809,651.699,185534
549.746,649.636,185945
549.684,647.572,185633
549.622,645.507,185305
549.559,643.442,185763
549.497,641.377,185130
549.435,639.311,185321
549.372,637.245,185337
549.31,635.178,185501
549.247,633.111,185904
549.185,631.043,185733
549.123,628.975,185381
549.06,626.906,186191
548.998,624.837,185308
548.936,622.768,184688
548.873,620.698,185116
548.811,618.627,185324
548.748,616.556,184541
548.686,614.485,183940
548.624,612.413,183606
548.561,610.34,183612
548.499,608.267,183683
548.437,606.194,181763
548.374,604.12,182532
548.312,602.046,182693
548.249,599.971,181513
548.187,597.896,180903
548.125,595.82,179917
548.062,593.744,180286
548.0,591.667,179403
547.938,589.59,178767
547.875,587.513,178261
547.813,585.434,178936
547.751,583.356,177001
547.688,581.277,176700
547.626,579.197,177559
547.563,577.117,176796
547.501,575.037,175978
547.439,572.956,176101
547.376,570.875,176228
547.314,568.793,175957
547.252,566.71,175806
547.189,564.628,175930
547.127,562.544,175627
547.064,560.461,174881
547.002,558.376,174732
546.94,556.292,175697
546.877,554.206,175047
546.815,552.121,173802
546.753,550.035,175159
546.69,547.948,174176
546.628,545.861,174134
546.565,543.773,173804
546.503,541.685,173724
546.441,539.597,173505
546.378,537.508,172977
546.316,535.418,173817
546.254,533.328,173453
546.191,531.238,172455
546.129,529.147,172101
546.067,527.056,172780
546.004,524.964,171933
545.942,522.871,171136
545.879,520.778,170868
545.817,518.685,171347
545.755,516.591,170643
545.692,514.497,171082
545.63,512.402,171446
545.568,510.307,171992
545.505,508.211,173455
545.443,506.115,174542
545.38,504.019,177848
545.318,501.922,180272
545.256,499.824,180260
545.193,497.726,179204
545.131,495.627,176982
545.069,493.528,174649
545.006,491.429,173069
544.944,489.329,172068
544.881,487.228,170792
544.819,485.127,170328
544.757,483.026,169722
544.694,480.924,169544
544.632,478.821,169081
544.57,476.718,169163
544.507,474.615,168775
544.445,472.511,168478
544.383,470.407,168127
544.32,468.302,167954
544.258,466.197,167546
544.195,464.091,166722
544.133,461.985,166559
544.071,459.878,166690
544.008,457.771,166218
543.946,455.663,166532
543.884,453.555,165832
543.821,451.446,165778
543.759,449.337,164870
543.696,447.227,163617
543.634,445.117,163629
543.572,443.006,162872
543.509,440.895,163396
543.447,438.784,163262
543.385,436.671,162535
543.322,434.559,162426
543.26,432.446,162974
543.198,430.332,161682
543.135,428.218,161847
543.073,426.104,162325
543.01,423.989,162634
542.948,421.873,163615
542.886,419.757,162155
542.823,417.641,163093
542.761,415.524,162484
542.699,413.407,162740
542.636,411.289,163388
542.574,409.17,162510
542.511,407.051,162537
542.449,404.932,162726
542.387,402.812,163195
542.324,400.692,162023
542.262,398.571,162319
542.2,396.45,162447
542.137,394.328,161735
542.075,392.205,161535
542.012,390.083,160927
541.95,387.959,160582
541.888,385.836,159872
541.825,383.711,159682
541.763,381.587,159266
541.701,379.461,159292
541.638,377.336,158339
541.576,375.209,158274
541.514,373.083,158243
541.451,370.955,158188
541.389,368.828,158304
541.326,366.7,157959
541.264,364.571,157733
541.202,362.442,157624
541.139,360.312,157960
541.077,358.182,158027
541.015,356.051,158343
540.952,353.92,157952
540.89,351.789,157745
540.827,349.657,156769
540.765,347.524,156960
540.703,345.391,155891
540.64,343.257,156163
540.578,341.123,155250
540.516,338.989,154741
540.453,336.854,153279
540.391,334.718,152806
540.328,332.582,151964
540.266,330.445,151150
540.204,328.308,151505
540.141,326.171,150700
540.079,324.033,149954
540.017,321.894,149528
539.954,319.755,149395
539.892,317.616,149624
539.83,315.476,150329
539.767,313.335,149528
539.705,311.194,150413
539.642,309.053,150032
539.58,306.911,150456
539.518,304.768,151141
539.455,302.625,150928
539.393,300.482,150401
539.331,298.338,148790
539.268,296.194,147438
539.206,294.049,145995
539.143,291.903,143783
539.081,289.757,141684
539.019,287.611,140451
538.956,285.464,138868
538.894,283.316,138450
538.832,281.169,137497
538.769,279.02,137564
538.707,276.871,138264
538.644,274.722,137508
538.582,272.572,134946
538.52,270.421,130338
538.457,268.271,120948
538.395,266.119,112324
538.333,263.967,101947
538.27,261.815,91583
538.208,259.662,83519
538.146,257.508,77338
538.083,255.355,72465
538.021,253.2,69121
537.958,251.045,67009
537.896,248.89,65760
537.834,246.734,64836
537.771,244.578,64298
537.709,242.421,63722
537.647,240.263,63667
537.584,238.105,63264
537.522,235.947,63106
537.459,233.788,63022
537.397,231.629,62979
537.335,229.469,62767
537.272,227.308,62741
537.21,225.147,62808
537.148,222.986,62831
537.085,220.824,62813
537.023,218.662,62754
536.96,216.499,62704
536.898,214.335,62681
536.836,212.171,62738
536.773,210.007,62683
536.711,207.842,62664
553.364,768.549,193031
553.301,766.512,193442
553.239,764.475,194323
553.177,762.437,193434
553.114,760.398,193001
553.052,758.359,193076
552.99,756.32,192914
552.927,754.28,193863
552.865,752.24,192514
552.802,750.199,192426
552.74,748.158,192518
552.678,746.116,192426
552.615,744.074,192158
552.553,742.032,190918
552.491,739.989,192156
552.428,737.945,191507
552.366,735.901,191277
552.304,733.857,191011
552.241,731.812,191471
552.179,729.766,191110
552.116,727.721,190659
552.054,725.674,191000
551.992,723.628,189851
551.929,721.58,191079
551.867,719.533,190654
551.805,717.485,190001
551.742,715.436,190566
551.68,713.387,190455
551.617,711.337,189540
551.555,709.287,190499
551.493,707.237,190277
551.43,705.186,190677
551.368,703.135,190265
551.306,701.083,190167
551.243,699.031,189906
551.181,696.978,190585
551.119,694.925,189722
551.056,692.871,190591
550.994,690.817,189802
550.931,688.762,189564
550.869,686.707,189243
550.807,684.651,188888
550.744,682.595,189687
550.682,680.539,189628
550.62,678.482,188430
550.557,676.425,187846
550.495,674.367,188890
550.432,672.308,187977
550.37,670.25,187922
550.308,668.19,187587
550.245,666.131,187617
550.183,664.07,186419
550.121,662.01,185971
550.058,659.948,186378
549.996,657.887,186644
549.933,655.825,185572
549.871,653.762,185699
549.809,651.699,186386
549.746,649.636,185442
549.684,647.572,184932
549.622,645.507,185938
549.559,643.442,185018
549.497,641.377,185370
549.435,639.311,185496
549.372,637.245,185417
549.31,635.178,185336
549.247,633.111,185751
549.185,631.043,185488
549.123,628.975,185798
549.06,626.906,185772
548.998,624.837,185576
548.936,622.768,185506
548.873,620.698,185584
548.811,618.627,185655
548.748,616.556,184579
548.686,614.485,184292
548.624,612.413,183824
548.561,610.34,183844
548.499,608.267,183462
548.437,606.194,182953
548.374,604.12,183508
548.312,602.046,181781
548.249,599.971,181648
548.187,597.896,181336
548.125,595.82,180560
548.062,593.744,180095
548.0,591.667,179490
547.938,589.59,178581
547.875,587.513,178782
547.813,585.434,178328
547.751,583.356,177594
547.688,581.277,178143
547.626,579.197,177978
547.563,577.117,176188
547.501,575.037,176792
547.439,572.956,176598
547.376,570.875,176763
547.314,568.793,175293
547.252,566.71,176072
547.189,564.628,177104
547.127,562.544,175803
547.064,560.461,176169
547.002,558.376,175303
546.94,556.292,175033
546.877,554.206,175244
546.815,552.121,175144
546.753,550.035,175328
546.69,547.948,175564
546.628,545.861,174052
546.565,543.773,174834
546.503,541.685,174158
546.441,539.597,174029
546.378,537.508,174028
546.316,535.418,173528
546.254,533.328,172786
546.191,531.238,173307
546.129,529.147,173074
546.067,527.056,172668
546.004,524.964,172123
545.942,522.871,171431
545.879,520.778,171371
545.817,518.685,171218
545.755,516.591,171579
545.692,514.497,171179
545.63,512.402,171782
545.568,510.307,172282
545.505,508.211,173557
545.443,506.115,175828
545.38,504.019,178292
545.318,501.922,178958
545.256,499.824,180046
545.193,497.726,179748
545.131,495.627,177163
545.069,493.528,175440
545.006,491.429,174400
544.944,489.329,171127
544.881,487.228,171228
544.819,485.127,170608
544.757,483.026,170004
544.694,480.924,169542
544.632,478.821,169715
544.57,476.718,169320
544.507,474.615,168811
544.445,472.511,168855
544.383,470.407,169120
544.32,468.302,168126
544.258,466.197,167230
544.195,464.091,167154
544.133,461.985,167710
544.071,459.878,167181
544.008,457.771,166678
543.946,455.663,166545
543.884,453.555,165663
543.821,451.446,165512
543.759,449.337,165366
543.696,447.227,164110
543.634,445.117,163602
543.572,443.006,163256
543.509,440.895,163874
543.447,438.784,162819
543.385,436.671,163250
543.322,434.559,163071
543.26,432.446,162899
543.198,430.332,162403
543.135,428.218,162487
543.073,426.104,163069
543.01,423.989,162395
542.948,421.873,163486
542.886,419.757,163115
542.823,417.641,162164
542.761,415.524,163031
542.699,413.407,163651
542.636,411.289,163593
542.574,409.17,163372
542.511,407.051,162727
542.449,404.932,163039
542.387,402.812,163404
542.324,400.692,162718
542.262,398.571,161955
542.2,396.45,162135
542.137,394.328,161880
542.075,392.205,161761
542.012,390.083,160419
541.95,387.959,160228
541.888,385.836,160728
541.825,383.711,159795
541.763,381.587,160061
541.701,379.461,159469
541.638,377.336,159632
541.576,375.209,159354
541.514,373.083,158462
541.451,370.955,158678
541.389,368.828,158308
541.326,366.7,158466
541.264,364.571,158720
541.202,362.442,158146
541.139,360.312,157843
541.077,358.182,158734
541.015,356.051,158336
540.952,353.92,157799
540.89,351.789,157267
540.827,349.657,157398
540.765,347.524,156845
540.703,345.391,156018
540.64,343.257,155550
540.578,341.123,155470
540.516,338.989,154135
540.453,336.854,153960
540.391,334.718,153359
540.328,332.582,151771
540.266,330.445,151699
540.204,328.308,150775
540.141,326.171,150077
540.079,324.033,149590
540.017,321.894,150207
539.954,319.755,149220
539.892,317.616,150120
539.83,315.476,150225
539.767,313.335,150692
539.705,311.194,151433
539.642,309.053,151159
539.58,306.911,151413
539.518,304.768,150962
539.455,302.625,150841
539.393,300.482,150220
539.331,298.338,149223
539.268,296.194,147658
539.206,294.049,146118
539.143,291.903,144080
539.081,289.757,142159
539.019,287.611,139503
538.956,285.464,138555
538.894,283.316,138007
538.832,281.169,137669
538.769,279.02,137816
538.707,276.871,138003
538.644,274.722,137512
538.582,272.572,135523
538.52,270.421,130381
538.457,268.271,121796
538.395,266.119,112508
538.333,263.967,101510
538.27,261.815,92063
538.208,259.662,83664
538.146,257.508,77323
538.083,255.355,72496
538.021,253.2,69260
537.958,251.045,67121
537.896,248.89,65711
537.834,246.734,64717
537.771,244.578,64385
537.709,242.421,63758
537.647,240.263,63501
537.584,238.105,63306
537.522,235.947,63158
537.459,233.788,62906
537.397,231.629,63132
537.335,229.469,62852
537.272,227.308,62642
537.21,225.147,62858
537.148,222.986,62784
537.085,220.824,62731
537.023,218.662,62721
536.96,216.499,62718
536.898,214.335,62617
536.836,212.171,62831
536.773,210.007,62547
536.711,207.842,62765
536.661,206.11,62622