File: tomke/20240809/raw_data/Si_onTiO2_0mA_30mW_30sec_4acc_517nm_02.txt
Wavelength(nm), Raman shift(cm^-1), Intensity(counts)
525.364,-194.586,59752
525.314,-196.394,60076
525.264,-198.202,60091
525.214,-200.011,59988
525.164,-201.82,60024
525.114,-203.629,60043
525.064,-205.439,60005
525.015,-207.249,60007
524.965,-209.059,59950
524.915,-210.87,59965
524.865,-212.681,59990
524.815,-214.492,60030
524.765,-216.304,60051
524.715,-218.116,60029
524.665,-219.928,59999
524.615,-221.741,60066
524.565,-223.554,60039
524.516,-225.368,59917
524.466,-227.181,60001
524.416,-228.996,60008
524.366,-230.81,60024
524.316,-232.625,60058
524.266,-234.44,60011
524.216,-236.256,60070
524.166,-238.072,60019
524.116,-239.888,59973
524.067,-241.704,59974
524.017,-243.521,60120
523.967,-245.339,59976
523.917,-247.156,60017
523.867,-248.974,60034
523.817,-250.792,59997
523.767,-252.611,60027
523.717,-254.43,59904
523.667,-256.249,60061
523.617,-258.069,60076
523.568,-259.889,59985
523.518,-261.709,60059
523.468,-263.53,60032
523.418,-265.351,59902
523.368,-267.173,60039
523.318,-268.994,60096
523.268,-270.817,60049
523.218,-272.639,60055
523.168,-274.462,60090
523.119,-276.285,60159
523.069,-278.109,60091
523.019,-279.932,60144
522.969,-281.757,60154
522.919,-283.581,60132
522.869,-285.406,60240
522.819,-287.231,60265
522.769,-289.057,60188
522.719,-290.883,60183
522.669,-292.709,60149
522.62,-294.536,60227
522.57,-296.363,60223
522.52,-298.19,60213
522.47,-300.018,60220
522.42,-301.846,60170
522.37,-303.674,60321
522.32,-305.503,60291
522.27,-307.332,60202
522.22,-309.161,60187
522.17,-310.991,60171
522.121,-312.821,60259
522.071,-314.652,60195
522.021,-316.483,60209
521.971,-318.314,60195
521.921,-320.145,60228
521.871,-321.977,60202
521.821,-323.81,60195
521.771,-325.642,60213
521.721,-327.475,60225
521.672,-329.308,60202
521.622,-331.142,60178
521.572,-332.976,60229
521.522,-334.81,60049
521.472,-336.645,60152
521.422,-338.48,60129
521.372,-340.315,60144
521.322,-342.151,60155
521.272,-343.987,60172
521.222,-345.824,60094
521.173,-347.66,60059
521.123,-349.498,60156
521.073,-351.335,60159
521.023,-353.173,60044
520.973,-355.011,60080
520.923,-356.85,60127
520.873,-358.689,60057
520.823,-360.528,60088
520.773,-362.368,59975
520.723,-364.208,60076
520.674,-366.048,60072
520.624,-367.889,60145
520.574,-369.73,60105
520.524,-371.571,60108
520.474,-373.413,60109
520.424,-375.255,60086
520.374,-377.097,59955
520.324,-378.94,60089
520.274,-380.783,60078
520.225,-382.627,60099
520.175,-384.47,60108
520.125,-386.315,60035
520.075,-388.159,60149
520.025,-390.004,60145
519.975,-391.849,60029
519.925,-393.695,60072
519.875,-395.541,60172
519.825,-397.387,59965
519.775,-399.234,60071
519.726,-401.081,60054
519.676,-402.928,60091
519.626,-404.776,60014
519.576,-406.624,60028
519.526,-408.473,60106
519.476,-410.322,60025
519.426,-412.171,60057
519.376,-414.02,60082
519.326,-415.87,60031
519.277,-417.72,60079
519.227,-419.571,59994
519.177,-421.422,60134
519.127,-423.273,60164
519.077,-425.125,60063
519.027,-426.977,60095
518.977,-428.829,60068
518.927,-430.682,60052
518.877,-432.535,60049
518.827,-434.389,60064
518.778,-436.242,59991
518.728,-438.096,60018
518.678,-439.951,60061
518.628,-441.806,60107
518.578,-443.661,60069
518.528,-445.517,60112
518.478,-447.373,60088
518.428,-449.229,60009
518.378,-451.086,60074
518.328,-452.943,60022
518.279,-454.8,60004
518.229,-456.658,60074
518.179,-458.516,59995
518.129,-460.374,60006
518.079,-462.233,59968
518.029,-464.092,60061
517.979,-465.952,60008
517.929,-467.812,60020
517.879,-469.672,60064
517.83,-471.532,60022
517.78,-473.393,60015
517.73,-475.255,60033
517.68,-477.116,59991
517.63,-478.978,60037
517.58,-480.841,60037
517.53,-482.703,60103
517.48,-484.567,60093
517.43,-486.43,60025
517.38,-488.294,60022
517.331,-490.158,60102
517.281,-492.023,60099
517.231,-493.887,60007
517.181,-495.753,60129
517.131,-497.618,59990
517.081,-499.484,60102
517.031,-501.351,60080
516.981,-503.217,60074
516.931,-505.084,60199
516.881,-506.952,60239
516.832,-508.82,60252
516.782,-510.688,60383
516.732,-512.556,60756
516.682,-514.425,61428
516.632,-516.294,63605
516.582,-518.164,66762
516.532,-520.034,67075
516.482,-521.904,64487
516.432,-523.775,62454
516.383,-525.646,61186
516.333,-527.517,60593
516.283,-529.389,60369
516.233,-531.261,60224
516.183,-533.134,60311
516.133,-535.006,60161
516.083,-536.88,59983
516.033,-538.753,60032
515.983,-540.627,60077
515.933,-542.501,60049
515.884,-544.376,60018
515.834,-546.251,60089
515.784,-548.126,60162
515.734,-550.002,60048
515.684,-551.878,60047
515.634,-553.755,60128
515.584,-555.632,60032
515.534,-557.509,60040
515.484,-559.386,60012
515.435,-561.264,60121
515.385,-563.143,60023
515.335,-565.021,60098
515.285,-566.9,60059
515.235,-568.78,60074
515.185,-570.659,59935
515.135,-572.539,59982
515.085,-574.42,60031
515.035,-576.301,59991
514.985,-578.182,60030
514.936,-580.064,59964
514.886,-581.945,59926
514.836,-583.828,60061
514.786,-585.71,60004
514.736,-587.593,60047
514.686,-589.477,60091
514.636,-591.361,60047
514.586,-593.245,60048
514.536,-595.129,59925
514.486,-597.014,60114
514.437,-598.899,60060
514.387,-600.785,60079
514.337,-602.671,60068
514.287,-604.557,59977
514.237,-606.444,60042
514.187,-608.331,59975
514.137,-610.218,60095
514.087,-612.106,59992
514.037,-613.994,60100
513.988,-615.883,60028
513.938,-617.771,60023
513.888,-619.661,60096
513.838,-621.55,60031
513.788,-623.44,60060
513.738,-625.331,60011
513.688,-627.221,60038
513.638,-629.112,60019
513.588,-631.004,59969
513.538,-632.896,59953
513.489,-634.788,59977
513.439,-636.68,60026
513.389,-638.573,60032
513.339,-640.467,59988
513.289,-642.36,60004
513.239,-644.254,60109
513.189,-646.149,59988
513.139,-648.043,59993
513.089,-649.939,59975
513.04,-651.834,60072
512.99,-653.73,60064
512.94,-655.626,60058
512.89,-657.523,60002
512.84,-659.42,59937
512.79,-661.317,59994
512.74,-663.215,60099
512.69,-665.113,60042
512.64,-667.011,59987
512.59,-668.91,60035
512.541,-670.809,60031
512.491,-672.709,60004
512.441,-674.609,59979
512.391,-676.509,59967
512.341,-678.41,60020
512.291,-680.311,59939
512.241,-682.212,60088
512.191,-684.114,59995
512.141,-686.016,60022
512.091,-687.919,59982
512.042,-689.821,60015
511.992,-691.725,60048
511.942,-693.628,59991
511.892,-695.532,60001
511.842,-697.437,60029
511.792,-699.341,59984
511.742,-701.247,59918
511.692,-703.152,60088
511.642,-705.058,59941
511.593,-706.964,60030
511.543,-708.871,60014
511.493,-710.778,60047
511.443,-712.685,60075
511.393,-714.593,59981
511.343,-716.501,59992
511.293,-718.409,60002
511.243,-720.318,59995
511.193,-722.227,59941
511.143,-724.137,59978
511.094,-726.047,59994
511.044,-727.957,59949
510.994,-729.868,59978
510.944,-731.779,60022
510.894,-733.691,59989
510.844,-735.602,70692
510.794,-737.515,60020
510.744,-739.427,59927
510.694,-741.34,59946
510.644,-743.253,60031
510.595,-745.167,60025
510.545,-747.081,60000
510.495,-748.996,59998
510.445,-750.91,60011
510.395,-752.826,59993
510.345,-754.741,60019
510.295,-756.657,60052
510.245,-758.573,60010
510.195,-760.49,59979
510.146,-762.407,59924
510.096,-764.325,60057
510.046,-766.242,59983
509.996,-768.161,59980
509.946,-770.079,59996
509.896,-771.998,60037
509.846,-773.917,59929
509.796,-775.837,60061
509.746,-777.757,60048
509.696,-779.677,60132
509.647,-781.598,60003
509.597,-783.52,59921
509.547,-785.441,59932
509.497,-787.363,59998
509.447,-789.285,59990
509.397,-791.208,59972
509.347,-793.131,60042
509.297,-795.055,59995
509.247,-796.978,60049
509.198,-798.903,59984
509.148,-800.827,60015
509.098,-802.752,59973
509.048,-804.677,59923
508.998,-806.603,60004
508.948,-808.529,59949
508.898,-810.456,60006
508.848,-812.383,59945
508.798,-814.31,60052
508.748,-816.237,59962
508.699,-818.165,60040
525.364,-194.586,59713
525.314,-196.394,60049
525.264,-198.202,60024
525.214,-200.011,60045
525.164,-201.82,59967
525.114,-203.629,60024
525.064,-205.439,59923
525.015,-207.249,59967
524.965,-209.059,59984
524.915,-210.87,60008
524.865,-212.681,59918
524.815,-214.492,59990
524.765,-216.304,60030
524.715,-218.116,59992
524.665,-219.928,59985
524.615,-221.741,59970
524.565,-223.554,60035
524.516,-225.368,60008
524.466,-227.181,59986
524.416,-228.996,59924
524.366,-230.81,60011
524.316,-232.625,60043
524.266,-234.44,59989
524.216,-236.256,60000
524.166,-238.072,59991
524.116,-239.888,59993
524.067,-241.704,60043
524.017,-243.521,59927
523.967,-245.339,60024
523.917,-247.156,59969
523.867,-248.974,60001
523.817,-250.792,59927
523.767,-252.611,59966
523.717,-254.43,59923
523.667,-256.249,60046
523.617,-258.069,59974
523.568,-259.889,59940
523.518,-261.709,59998
523.468,-263.53,59988
523.418,-265.351,59954
523.368,-267.173,60094
523.318,-268.994,60021
523.268,-270.817,60012
523.218,-272.639,60093
523.168,-274.462,60141
523.119,-276.285,60154
523.069,-278.109,60102
523.019,-279.932,60185
522.969,-281.757,60150
522.919,-283.581,60176
522.869,-285.406,60238
522.819,-287.231,60189
522.769,-289.057,60242
522.719,-290.883,60196
522.669,-292.709,60144
522.62,-294.536,60224
522.57,-296.363,60176
522.52,-298.19,60283
522.47,-300.018,60257
522.42,-301.846,60266
522.37,-303.674,60285
522.32,-305.503,60320
522.27,-307.332,60234
522.22,-309.161,60176
522.17,-310.991,60215
522.121,-312.821,60209
522.071,-314.652,60234
522.021,-316.483,60244
521.971,-318.314,60223
521.921,-320.145,60303
521.871,-321.977,60244
521.821,-323.81,60291
521.771,-325.642,60221
521.721,-327.475,60244
521.672,-329.308,60211
521.622,-331.142,60181
521.572,-332.976,60212
521.522,-334.81,60150
521.472,-336.645,60156
521.422,-338.48,60163
521.372,-340.315,60074
521.322,-342.151,60120
521.272,-343.987,60138
521.222,-345.824,60133
521.173,-347.66,60025
521.123,-349.498,60086
521.073,-351.335,60025
521.023,-353.173,60065
520.973,-355.011,60176
520.923,-356.85,60057
520.873,-358.689,60053
520.823,-360.528,60096
520.773,-362.368,60127
520.723,-364.208,60125
520.674,-366.048,60082
520.624,-367.889,60075
520.574,-369.73,60081
520.524,-371.571,60007
520.474,-373.413,60078
520.424,-375.255,60051
520.374,-377.097,60105
520.324,-378.94,60088
520.274,-380.783,60144
520.225,-382.627,60116
520.175,-384.47,60099
520.125,-386.315,60011
520.075,-388.159,60099
520.025,-390.004,60093
519.975,-391.849,60092
519.925,-393.695,60095
519.875,-395.541,60036
519.825,-397.387,60075
519.775,-399.234,60051
519.726,-401.081,60037
519.676,-402.928,60002
519.626,-404.776,60080
519.576,-406.624,60078
519.526,-408.473,60041
519.476,-410.322,60099
519.426,-412.171,60062
519.376,-414.02,60027
519.326,-415.87,60148
519.277,-417.72,60080
519.227,-419.571,60054
519.177,-421.422,60021
519.127,-423.273,60085
519.077,-425.125,60039
519.027,-426.977,59988
518.977,-428.829,60054
518.927,-430.682,60026
518.877,-432.535,60105
518.827,-434.389,60073
518.778,-436.242,60020
518.728,-438.096,60070
518.678,-439.951,60038
518.628,-441.806,60031
518.578,-443.661,60064
518.528,-445.517,60064
518.478,-447.373,60031
518.428,-449.229,60089
518.378,-451.086,59991
518.328,-452.943,60043
518.279,-454.8,59983
518.229,-456.658,60009
518.179,-458.516,59936
518.129,-460.374,60016
518.079,-462.233,60016
518.029,-464.092,60074
517.979,-465.952,59961
517.929,-467.812,59916
517.879,-469.672,60044
517.83,-471.532,59970
517.78,-473.393,60016
517.73,-475.255,59960
517.68,-477.116,60051
517.63,-478.978,59988
517.58,-480.841,59966
517.53,-482.703,60050
517.48,-484.567,60090
517.43,-486.43,60087
517.38,-488.294,60100
517.331,-490.158,60105
517.281,-492.023,59979
517.231,-493.887,60061
517.181,-495.753,59974
517.131,-497.618,60108
517.081,-499.484,60103
517.031,-501.351,60127
516.981,-503.217,60118
516.931,-505.084,60065
516.881,-506.952,60246
516.832,-508.82,60340
516.782,-510.688,60425
516.732,-512.556,60668
516.682,-514.425,61287
516.632,-516.294,63696
516.582,-518.164,66593
516.532,-520.034,67117
516.482,-521.904,64662
516.432,-523.775,62510
516.383,-525.646,61349
516.333,-527.517,60659
516.283,-529.389,60289
516.233,-531.261,60179
516.183,-533.134,60212
516.133,-535.006,60198
516.083,-536.88,60169
516.033,-538.753,60040
515.983,-540.627,60112
515.933,-542.501,60100
515.884,-544.376,60026
515.834,-546.251,60077
515.784,-548.126,60074
515.734,-550.002,60067
515.684,-551.878,60008
515.634,-553.755,60044
515.584,-555.632,60022
515.534,-557.509,60032
515.484,-559.386,60052
515.435,-561.264,60069
515.385,-563.143,60025
515.335,-565.021,60006
515.285,-566.9,60067
515.235,-568.78,59982
515.185,-570.659,60082
515.135,-572.539,59934
515.085,-574.42,60019
515.035,-576.301,60124
514.985,-578.182,60033
514.936,-580.064,59991
514.886,-581.945,59999
514.836,-583.828,59967
514.786,-585.71,60061
514.736,-587.593,60015
514.686,-589.477,60063
514.636,-591.361,59991
514.586,-593.245,60005
514.536,-595.129,60052
514.486,-597.014,59989
514.437,-598.899,60008
514.387,-600.785,60060
514.337,-602.671,60006
514.287,-604.557,60084
514.237,-606.444,60085
514.187,-608.331,59995
514.137,-610.218,60016
514.087,-612.106,59998
514.037,-613.994,60001
513.988,-615.883,60062
513.938,-617.771,60102
513.888,-619.661,60069
513.838,-621.55,59998
513.788,-623.44,60024
513.738,-625.331,60111
513.688,-627.221,59980
513.638,-629.112,60016
513.588,-631.004,60037
513.538,-632.896,59947
513.489,-634.788,59984
513.439,-636.68,60046
513.389,-638.573,60062
513.339,-640.467,59999
513.289,-642.36,60018
513.239,-644.254,59946
513.189,-646.149,60040
513.139,-648.043,60024
513.089,-649.939,60011
513.04,-651.834,60071
512.99,-653.73,59969
512.94,-655.626,59954
512.89,-657.523,59972
512.84,-659.42,60066
512.79,-661.317,59994
512.74,-663.215,59963
512.69,-665.113,59965
512.64,-667.011,60015
512.59,-668.91,59988
512.541,-670.809,60007
512.491,-672.709,60021
512.441,-674.609,59996
512.391,-676.509,60007
512.341,-678.41,59963
512.291,-680.311,60072
512.241,-682.212,59897
512.191,-684.114,59998
512.141,-686.016,59958
512.091,-687.919,59963
512.042,-689.821,60007
511.992,-691.725,60003
511.942,-693.628,60074
511.892,-695.532,60070
511.842,-697.437,59936
511.792,-699.341,60022
511.742,-701.247,59990
511.692,-703.152,60033
511.642,-705.058,60007
511.593,-706.964,60044
511.543,-708.871,60008
511.493,-710.778,60005
511.443,-712.685,59941
511.393,-714.593,60045
511.343,-716.501,59977
511.293,-718.409,60008
511.243,-720.318,60060
511.193,-722.227,60053
511.143,-724.137,59954
511.094,-726.047,59936
511.044,-727.957,59958
510.994,-729.868,59946
510.944,-731.779,59969
510.894,-733.691,59941
510.844,-735.602,59977
510.794,-737.515,59993
510.744,-739.427,60044
510.694,-741.34,59952
510.644,-743.253,60014
510.595,-745.167,60001
510.545,-747.081,60031
510.495,-748.996,59954
510.445,-750.91,60047
510.395,-752.826,59996
510.345,-754.741,59950
510.295,-756.657,59972
510.245,-758.573,59953
510.195,-760.49,59995
510.146,-762.407,59994
510.096,-764.325,59944
510.046,-766.242,59928
509.996,-768.161,60062
509.946,-770.079,60054
509.896,-771.998,60031
509.846,-773.917,59986
509.796,-775.837,60038
509.746,-777.757,60006
509.696,-779.677,60072
509.647,-781.598,59999
509.597,-783.52,59952
509.547,-785.441,59966
509.497,-787.363,59939
509.447,-789.285,59964
509.397,-791.208,59977
509.347,-793.131,60021
509.297,-795.055,59959
509.247,-796.978,60020
509.198,-798.903,59995
509.148,-800.827,60067
509.098,-802.752,59975
509.048,-804.677,60104
508.998,-806.603,60015
508.948,-808.529,59992
508.898,-810.456,59977
508.848,-812.383,60014
508.798,-814.31,59955
508.748,-816.237,59951
508.699,-818.165,59995
525.364,-194.586,59751
525.314,-196.394,60025
525.264,-198.202,60094
525.214,-200.011,59999
525.164,-201.82,60008
525.114,-203.629,60083
525.064,-205.439,60071
525.015,-207.249,60064
524.965,-209.059,59970
524.915,-210.87,60033
524.865,-212.681,60056
524.815,-214.492,59993
524.765,-216.304,60013
524.715,-218.116,60020
524.665,-219.928,59950
524.615,-221.741,60038
524.565,-223.554,59986
524.516,-225.368,59936
524.466,-227.181,60013
524.416,-228.996,60096
524.366,-230.81,59994
524.316,-232.625,60002
524.266,-234.44,59963
524.216,-236.256,60058
524.166,-238.072,60098
524.116,-239.888,59967
524.067,-241.704,60028
524.017,-243.521,60028
523.967,-245.339,59952
523.917,-247.156,60065
523.867,-248.974,59950
523.817,-250.792,60020
523.767,-252.611,60102
523.717,-254.43,60011
523.667,-256.249,59980
523.617,-258.069,59991
523.568,-259.889,59940
523.518,-261.709,60063
523.468,-263.53,60057
523.418,-265.351,60083
523.368,-267.173,60022
523.318,-268.994,60112
523.268,-270.817,60118
523.218,-272.639,60068
523.168,-274.462,60098
523.119,-276.285,60168
523.069,-278.109,60092
523.019,-279.932,60178
522.969,-281.757,60180
522.919,-283.581,60207
522.869,-285.406,60161
522.819,-287.231,60209
522.769,-289.057,60272
522.719,-290.883,60124
522.669,-292.709,60177
522.62,-294.536,60211
522.57,-296.363,60321
522.52,-298.19,60213
522.47,-300.018,60253
522.42,-301.846,60336
522.37,-303.674,60369
522.32,-305.503,60295
522.27,-307.332,60250
522.22,-309.161,60274
522.17,-310.991,60195
522.121,-312.821,60120
522.071,-314.652,60193
522.021,-316.483,60212
521.971,-318.314,60221
521.921,-320.145,60239
521.871,-321.977,60334
521.821,-323.81,60164
521.771,-325.642,60300
521.721,-327.475,60271
521.672,-329.308,60197
521.622,-331.142,60168
521.572,-332.976,60160
521.522,-334.81,60118
521.472,-336.645,60149
521.422,-338.48,60139
521.372,-340.315,60196
521.322,-342.151,60100
521.272,-343.987,60020
521.222,-345.824,60134
521.173,-347.66,60211
521.123,-349.498,60147
521.073,-351.335,60093
521.023,-353.173,60113
520.973,-355.011,60095
520.923,-356.85,60000
520.873,-358.689,60089
520.823,-360.528,60080
520.773,-362.368,60045
520.723,-364.208,60112
520.674,-366.048,60168
520.624,-367.889,60134
520.574,-369.73,60106
520.524,-371.571,60047
520.474,-373.413,60043
520.424,-375.255,60136
520.374,-377.097,60033
520.324,-378.94,60113
520.274,-380.783,60050
520.225,-382.627,60018
520.175,-384.47,60055
520.125,-386.315,60051
520.075,-388.159,60129
520.025,-390.004,60056
519.975,-391.849,60034
519.925,-393.695,60076
519.875,-395.541,60028
519.825,-397.387,60105
519.775,-399.234,60034
519.726,-401.081,60025
519.676,-402.928,60111
519.626,-404.776,60039
519.576,-406.624,60148
519.526,-408.473,60044
519.476,-410.322,60104
519.426,-412.171,60084
519.376,-414.02,60109
519.326,-415.87,60018
519.277,-417.72,59980
519.227,-419.571,60076
519.177,-421.422,60097
519.127,-423.273,60058
519.077,-425.125,60013
519.027,-426.977,60059
518.977,-428.829,60079
518.927,-430.682,59974
518.877,-432.535,60095
518.827,-434.389,60063
518.778,-436.242,60112
518.728,-438.096,60118
518.678,-439.951,60088
518.628,-441.806,60076
518.578,-443.661,60095
518.528,-445.517,59989
518.478,-447.373,60171
518.428,-449.229,60057
518.378,-451.086,60104
518.328,-452.943,60037
518.279,-454.8,59973
518.229,-456.658,60037
518.179,-458.516,60011
518.129,-460.374,60040
518.079,-462.233,60030
518.029,-464.092,60024
517.979,-465.952,60043
517.929,-467.812,60111
517.879,-469.672,60049
517.83,-471.532,60078
517.78,-473.393,60059
517.73,-475.255,59988
517.68,-477.116,59993
517.63,-478.978,60004
517.58,-480.841,59969
517.53,-482.703,60102
517.48,-484.567,60059
517.43,-486.43,60041
517.38,-488.294,60132
517.331,-490.158,60059
517.281,-492.023,60055
517.231,-493.887,60081
517.181,-495.753,60038
517.131,-497.618,60090
517.081,-499.484,60036
517.031,-501.351,60244
516.981,-503.217,60156
516.931,-505.084,60148
516.881,-506.952,60158
516.832,-508.82,60238
516.782,-510.688,60449
516.732,-512.556,60594
516.682,-514.425,61259
516.632,-516.294,63644
516.582,-518.164,66687
516.532,-520.034,67203
516.482,-521.904,64659
516.432,-523.775,62485
516.383,-525.646,61172
516.333,-527.517,60586
516.283,-529.389,60347
516.233,-531.261,60308
516.183,-533.134,60259
516.133,-535.006,60153
516.083,-536.88,60165
516.033,-538.753,60073
515.983,-540.627,60069
515.933,-542.501,60074
515.884,-544.376,60131
515.834,-546.251,60104
515.784,-548.126,60082
515.734,-550.002,60066
515.684,-551.878,60090
515.634,-553.755,60054
515.584,-555.632,60016
515.534,-557.509,60049
515.484,-559.386,60034
515.435,-561.264,60075
515.385,-563.143,60072
515.335,-565.021,60077
515.285,-566.9,60003
515.235,-568.78,60053
515.185,-570.659,60020
515.135,-572.539,59973
515.085,-574.42,59970
515.035,-576.301,60012
514.985,-578.182,60038
514.936,-580.064,60064
514.886,-581.945,60009
514.836,-583.828,60011
514.786,-585.71,59957
514.736,-587.593,60045
514.686,-589.477,60052
514.636,-591.361,60108
514.586,-593.245,59997
514.536,-595.129,60045
514.486,-597.014,60147
514.437,-598.899,59931
514.387,-600.785,60117
514.337,-602.671,60099
514.287,-604.557,59995
514.237,-606.444,60088
514.187,-608.331,60096
514.137,-610.218,60081
514.087,-612.106,60050
514.037,-613.994,60000
513.988,-615.883,60009
513.938,-617.771,60070
513.888,-619.661,60064
513.838,-621.55,60007
513.788,-623.44,60011
513.738,-625.331,60075
513.688,-627.221,60107
513.638,-629.112,60068
513.588,-631.004,60028
513.538,-632.896,59947
513.489,-634.788,60004
513.439,-636.68,60087
513.389,-638.573,59970
513.339,-640.467,60034
513.289,-642.36,60137
513.239,-644.254,59959
513.189,-646.149,60096
513.139,-648.043,60030
513.089,-649.939,59982
513.04,-651.834,60058
512.99,-653.73,60017
512.94,-655.626,59986
512.89,-657.523,60045
512.84,-659.42,59956
512.79,-661.317,60003
512.74,-663.215,59951
512.69,-665.113,59969
512.64,-667.011,60096
512.59,-668.91,60070
512.541,-670.809,60056
512.491,-672.709,60018
512.441,-674.609,60053
512.391,-676.509,59954
512.341,-678.41,60070
512.291,-680.311,60008
512.241,-682.212,60034
512.191,-684.114,59998
512.141,-686.016,60013
512.091,-687.919,60026
512.042,-689.821,60006
511.992,-691.725,60022
511.942,-693.628,60061
511.892,-695.532,59984
511.842,-697.437,60031
511.792,-699.341,60016
511.742,-701.247,59964
511.692,-703.152,59959
511.642,-705.058,60029
511.593,-706.964,60022
511.543,-708.871,59990
511.493,-710.778,60000
511.443,-712.685,60035
511.393,-714.593,60001
511.343,-716.501,60019
511.293,-718.409,59996
511.243,-720.318,60019
511.193,-722.227,60065
511.143,-724.137,59979
511.094,-726.047,60020
511.044,-727.957,60025
510.994,-729.868,60002
510.944,-731.779,60027
510.894,-733.691,60069
510.844,-735.602,60078
510.794,-737.515,60010
510.744,-739.427,60005
510.694,-741.34,59981
510.644,-743.253,60046
510.595,-745.167,60007
510.545,-747.081,60002
510.495,-748.996,60002
510.445,-750.91,60014
510.395,-752.826,60054
510.345,-754.741,59946
510.295,-756.657,59991
510.245,-758.573,60042
510.195,-760.49,60060
510.146,-762.407,60027
510.096,-764.325,60071
510.046,-766.242,60074
509.996,-768.161,60051
509.946,-770.079,59999
509.896,-771.998,60064
509.846,-773.917,60006
509.796,-775.837,60039
509.746,-777.757,59954
509.696,-779.677,59944
509.647,-781.598,59985
509.597,-783.52,60022
509.547,-785.441,60118
509.497,-787.363,60007
509.447,-789.285,59963
509.397,-791.208,60066
509.347,-793.131,59972
509.297,-795.055,60050
509.247,-796.978,60068
509.198,-798.903,60010
509.148,-800.827,60036
509.098,-802.752,59939
509.048,-804.677,59955
508.998,-806.603,59957
508.948,-808.529,60005
508.898,-810.456,59968
508.848,-812.383,60014
508.798,-814.31,60009
508.748,-816.237,59939
508.699,-818.165,60021
525.364,-194.586,59680
525.314,-196.394,60052
525.264,-198.202,60048
525.214,-200.011,59995
525.164,-201.82,60049
525.114,-203.629,60057
525.064,-205.439,59975
525.015,-207.249,60003
524.965,-209.059,75926
524.915,-210.87,60011
524.865,-212.681,59916
524.815,-214.492,60064
524.765,-216.304,59952
524.715,-218.116,59968
524.665,-219.928,59965
524.615,-221.741,60079
524.565,-223.554,60041
524.516,-225.368,59994
524.466,-227.181,59959
524.416,-228.996,60006
524.366,-230.81,59999
524.316,-232.625,59927
524.266,-234.44,59949
524.216,-236.256,60019
524.166,-238.072,60079
524.116,-239.888,60101
524.067,-241.704,59997
524.017,-243.521,59983
523.967,-245.339,60019
523.917,-247.156,59947
523.867,-248.974,60019
523.817,-250.792,60013
523.767,-252.611,59969
523.717,-254.43,60086
523.667,-256.249,59981
523.617,-258.069,59949
523.568,-259.889,60013
523.518,-261.709,60056
523.468,-263.53,59994
523.418,-265.351,60069
523.368,-267.173,60050
523.318,-268.994,60119
523.268,-270.817,60080
523.218,-272.639,60068
523.168,-274.462,60037
523.119,-276.285,60121
523.069,-278.109,60181
523.019,-279.932,60059
522.969,-281.757,60144
522.919,-283.581,60226
522.869,-285.406,60123
522.819,-287.231,60188
522.769,-289.057,60302
522.719,-290.883,60183
522.669,-292.709,60239
522.62,-294.536,60187
522.57,-296.363,60258
522.52,-298.19,60281
522.47,-300.018,60179
522.42,-301.846,60275
522.37,-303.674,60341
522.32,-305.503,60231
522.27,-307.332,60240
522.22,-309.161,60248
522.17,-310.991,60286
522.121,-312.821,60190
522.071,-314.652,60150
522.021,-316.483,60186
521.971,-318.314,60222
521.921,-320.145,60293
521.871,-321.977,60204
521.821,-323.81,60145
521.771,-325.642,60222
521.721,-327.475,60272
521.672,-329.308,60166
521.622,-331.142,60247
521.572,-332.976,60184
521.522,-334.81,60065
521.472,-336.645,60168
521.422,-338.48,60128
521.372,-340.315,60102
521.322,-342.151,60124
521.272,-343.987,60035
521.222,-345.824,60108
521.173,-347.66,60083
521.123,-349.498,60044
521.073,-351.335,60106
521.023,-353.173,60074
520.973,-355.011,60122
520.923,-356.85,60140
520.873,-358.689,60187
520.823,-360.528,60045
520.773,-362.368,60062
520.723,-364.208,60177
520.674,-366.048,60062
520.624,-367.889,60127
520.574,-369.73,60013
520.524,-371.571,60048
520.474,-373.413,60036
520.424,-375.255,60027
520.374,-377.097,60096
520.324,-378.94,60085
520.274,-380.783,60096
520.225,-382.627,60120
520.175,-384.47,60107
520.125,-386.315,60114
520.075,-388.159,60100
520.025,-390.004,60098
519.975,-391.849,60129
519.925,-393.695,60055
519.875,-395.541,60060
519.825,-397.387,60069
519.775,-399.234,60015
519.726,-401.081,60050
519.676,-402.928,60015
519.626,-404.776,59987
519.576,-406.624,60047
519.526,-408.473,60140
519.476,-410.322,60115
519.426,-412.171,60072
519.376,-414.02,59968
519.326,-415.87,60023
519.277,-417.72,60136
519.227,-419.571,60029
519.177,-421.422,59961
519.127,-423.273,60068
519.077,-425.125,60061
519.027,-426.977,60080
518.977,-428.829,60075
518.927,-430.682,60000
518.877,-432.535,60045
518.827,-434.389,60034
518.778,-436.242,59982
518.728,-438.096,60041
518.678,-439.951,59963
518.628,-441.806,60119
518.578,-443.661,60119
518.528,-445.517,60078
518.478,-447.373,60093
518.428,-449.229,60028
518.378,-451.086,60116
518.328,-452.943,60063
518.279,-454.8,60054
518.229,-456.658,60047
518.179,-458.516,60037
518.129,-460.374,60019
518.079,-462.233,59966
518.029,-464.092,60052
517.979,-465.952,60080
517.929,-467.812,59993
517.879,-469.672,60039
517.83,-471.532,60034
517.78,-473.393,60118
517.73,-475.255,59993
517.68,-477.116,60040
517.63,-478.978,60137
517.58,-480.841,59979
517.53,-482.703,59902
517.48,-484.567,60024
517.43,-486.43,60101
517.38,-488.294,60092
517.331,-490.158,60023
517.281,-492.023,60028
517.231,-493.887,60104
517.181,-495.753,60080
517.131,-497.618,60098
517.081,-499.484,60082
517.031,-501.351,60047
516.981,-503.217,60136
516.931,-505.084,60115
516.881,-506.952,60215
516.832,-508.82,60178
516.782,-510.688,60409
516.732,-512.556,60588
516.682,-514.425,61256
516.632,-516.294,63537
516.582,-518.164,66702
516.532,-520.034,67235
516.482,-521.904,64571
516.432,-523.775,62384
516.383,-525.646,61204
516.333,-527.517,60505
516.283,-529.389,60287
516.233,-531.261,60258
516.183,-533.134,60148
516.133,-535.006,60154
516.083,-536.88,60078
516.033,-538.753,60091
515.983,-540.627,60071
515.933,-542.501,60075
515.884,-544.376,60034
515.834,-546.251,60035
515.784,-548.126,59974
515.734,-550.002,60088
515.684,-551.878,60069
515.634,-553.755,60022
515.584,-555.632,60002
515.534,-557.509,60050
515.484,-559.386,60004
515.435,-561.264,60011
515.385,-563.143,60100
515.335,-565.021,60087
515.285,-566.9,60038
515.235,-568.78,59949
515.185,-570.659,59967
515.135,-572.539,60020
515.085,-574.42,60013
515.035,-576.301,59979
514.985,-578.182,60013
514.936,-580.064,59986
514.886,-581.945,59940
514.836,-583.828,59996
514.786,-585.71,60095
514.736,-587.593,59988
514.686,-589.477,59990
514.636,-591.361,59958
514.586,-593.245,60036
514.536,-595.129,60121
514.486,-597.014,60073
514.437,-598.899,60037
514.387,-600.785,60037
514.337,-602.671,59951
514.287,-604.557,60056
514.237,-606.444,59983
514.187,-608.331,60072
514.137,-610.218,60055
514.087,-612.106,59981
514.037,-613.994,60049
513.988,-615.883,60041
513.938,-617.771,60047
513.888,-619.661,60005
513.838,-621.55,60109
513.788,-623.44,60064
513.738,-625.331,59969
513.688,-627.221,60061
513.638,-629.112,60007
513.588,-631.004,60034
513.538,-632.896,60121
513.489,-634.788,59984
513.439,-636.68,60026
513.389,-638.573,59950
513.339,-640.467,60039
513.289,-642.36,59972
513.239,-644.254,59989
513.189,-646.149,60049
513.139,-648.043,59954
513.089,-649.939,60010
513.04,-651.834,60013
512.99,-653.73,60010
512.94,-655.626,59974
512.89,-657.523,60026
512.84,-659.42,60011
512.79,-661.317,59948
512.74,-663.215,60021
512.69,-665.113,60024
512.64,-667.011,60018
512.59,-668.91,59962
512.541,-670.809,59956
512.491,-672.709,59908
512.441,-674.609,60064
512.391,-676.509,59967
512.341,-678.41,59944
512.291,-680.311,60005
512.241,-682.212,60019
512.191,-684.114,60052
512.141,-686.016,59984
512.091,-687.919,60035
512.042,-689.821,59974
511.992,-691.725,60041
511.942,-693.628,60052
511.892,-695.532,59981
511.842,-697.437,60076
511.792,-699.341,60027
511.742,-701.247,60042
511.692,-703.152,59991
511.642,-705.058,59950
511.593,-706.964,60015
511.543,-708.871,59969
511.493,-710.778,62587
511.443,-712.685,59970
511.393,-714.593,60022
511.343,-716.501,59950
511.293,-718.409,60009
511.243,-720.318,59971
511.193,-722.227,60035
511.143,-724.137,59994
511.094,-726.047,59982
511.044,-727.957,60010
510.994,-729.868,59955
510.944,-731.779,60013
510.894,-733.691,60038
510.844,-735.602,60003
510.794,-737.515,60003
510.744,-739.427,60081
510.694,-741.34,60042
510.644,-743.253,60008
510.595,-745.167,60007
510.545,-747.081,59981
510.495,-748.996,59975
510.445,-750.91,59998
510.395,-752.826,59991
510.345,-754.741,59983
510.295,-756.657,59949
510.245,-758.573,60060
510.195,-760.49,59956
510.146,-762.407,60078
510.096,-764.325,60018
510.046,-766.242,60007
509.996,-768.161,60025
509.946,-770.079,60025
509.896,-771.998,60053
509.846,-773.917,60005
509.796,-775.837,59991
509.746,-777.757,59985
509.696,-779.677,60018
509.647,-781.598,60018
509.597,-783.52,60040
509.547,-785.441,59971
509.497,-787.363,60078
509.447,-789.285,59959
509.397,-791.208,60060
509.347,-793.131,60000
509.297,-795.055,60043
509.247,-796.978,59958
509.198,-798.903,60042
509.148,-800.827,59993
509.098,-802.752,60055
509.048,-804.677,59941
508.998,-806.603,59982
508.948,-808.529,59981
508.898,-810.456,59952
508.848,-812.383,60048
508.798,-814.31,59970
508.748,-816.237,60026
508.699,-818.165,60046
508.661,-819.612,60001