File: tomke/20240809/raw_data/Si_onTiO2_60mA_30mW_30sec_5acc_517nm_bg.txt
Wavelength(nm), Raman shift(cm^-1), Intensity(counts)
525.364,-194.586,72028
525.301,-196.846,72280
525.239,-199.106,72100
525.177,-201.367,72596
525.114,-203.629,72309
525.052,-205.891,72298
524.99,-208.154,72628
524.927,-210.417,72400
524.865,-212.681,72544
524.802,-214.945,72565
524.74,-217.21,72939
524.678,-219.475,72749
524.615,-221.741,72667
524.553,-224.008,72852
524.491,-226.275,72693
524.428,-228.542,72785
524.366,-230.81,73132
524.304,-233.079,73243
524.241,-235.348,73390
524.179,-237.618,73261
524.116,-239.888,73422
524.054,-242.159,73229
523.992,-244.43,73176
523.929,-246.702,73597
523.867,-248.974,73634
523.805,-251.247,73886
523.742,-253.52,74272
523.68,-255.794,74747
523.617,-258.069,75073
523.555,-260.344,76068
523.493,-262.62,77543
523.43,-264.896,79276
523.368,-267.173,82033
523.306,-269.45,85358
523.243,-271.728,89933
523.181,-274.006,94965
523.119,-276.285,99761
523.056,-278.564,104660
522.994,-280.844,108022
522.931,-283.125,111806
522.869,-285.406,113748
522.807,-287.688,116143
522.744,-289.97,116935
522.682,-292.252,118043
522.62,-294.536,118063
522.557,-296.82,118818
522.495,-299.104,118377
522.432,-301.389,118621
522.37,-303.674,119308
522.308,-305.96,119065
522.245,-308.247,118871
522.183,-310.534,118897
522.121,-312.821,118603
522.058,-315.11,118824
521.996,-317.398,117779
521.933,-319.687,118330
521.871,-321.977,117366
521.809,-324.268,117616
521.746,-326.559,117356
521.684,-328.85,117267
521.622,-331.142,116428
521.559,-333.434,116793
521.497,-335.728,116903
521.435,-338.021,115961
521.372,-340.315,116647
521.31,-342.61,116322
521.247,-344.905,116783
521.185,-347.201,116355
521.123,-349.498,116033
521.06,-351.795,115919
520.998,-354.092,115546
520.936,-356.39,115341
520.873,-358.689,115094
520.811,-360.988,115138
520.748,-363.287,114674
520.686,-365.588,114157
520.624,-367.889,113292
520.561,-370.19,113828
520.499,-372.492,113688
520.437,-374.794,113044
520.374,-377.097,113044
520.312,-379.401,112633
520.249,-381.705,112919
520.187,-384.009,112414
520.125,-386.315,111875
520.062,-388.62,112199
520.0,-390.927,112066
519.938,-393.234,112365
519.875,-395.541,112212
519.813,-397.849,112218
519.751,-400.158,111718
519.688,-402.467,111245
519.626,-404.776,111181
519.563,-407.086,111028
519.501,-409.397,110515
519.439,-411.708,110730
519.376,-414.02,110021
519.314,-416.333,109968
519.252,-418.646,109942
519.189,-420.959,109325
519.127,-423.273,108821
519.064,-425.588,108700
519.002,-427.903,108400
518.94,-430.219,107402
518.877,-432.535,107378
518.815,-434.852,107195
518.753,-437.169,107204
518.69,-439.487,106378
518.628,-441.806,106806
518.565,-444.125,106807
518.503,-446.445,106682
518.441,-448.765,106496
518.378,-451.086,106387
518.316,-453.407,106224
518.254,-455.729,105993
518.191,-458.051,106104
518.129,-460.374,105518
518.067,-462.698,106897
518.004,-465.022,105398
517.942,-467.347,104788
517.879,-469.672,105212
517.817,-471.998,105039
517.755,-474.324,104992
517.692,-476.651,104429
517.63,-478.978,103994
517.568,-481.306,104319
517.505,-483.635,104159
517.443,-485.964,103925
517.38,-488.294,103516
517.318,-490.624,104033
517.256,-492.955,103593
517.193,-495.286,104092
517.131,-497.618,103075
517.069,-499.951,103337
517.006,-502.284,103177
516.944,-504.618,103183
516.881,-506.952,102665
516.819,-509.287,103211
516.757,-511.622,102730
516.694,-513.958,102888
516.632,-516.294,102254
516.57,-518.631,102783
516.507,-520.969,102551
516.445,-523.307,102809
516.383,-525.646,102293
516.32,-527.985,102037
516.258,-530.325,102682
516.195,-532.665,102620
516.133,-535.006,102341
516.071,-537.348,102226
516.008,-539.69,101961
515.946,-542.033,102170
515.884,-544.376,102131
515.821,-546.72,102151
515.759,-549.064,101516
515.696,-551.409,101645
515.634,-553.755,101896
515.572,-556.101,101487
515.509,-558.448,101080
515.447,-560.795,101406
515.385,-563.143,100772
515.322,-565.491,100981
515.26,-567.84,100587
515.198,-570.189,101012
515.135,-572.539,100674
515.073,-574.89,100551
515.01,-577.241,100580
514.948,-579.593,100633
514.886,-581.945,100364
514.823,-584.298,100347
514.761,-586.652,100369
514.699,-589.006,99885
514.636,-591.361,100025
514.574,-593.716,99991
514.511,-596.072,100078
514.449,-598.428,99871
514.387,-600.785,99767
514.324,-603.142,99549
514.262,-605.5,99266
514.2,-607.859,99470
514.137,-610.218,99231
514.075,-612.578,99344
514.012,-614.938,98836
513.95,-617.299,99064
513.888,-619.661,98608
513.825,-622.023,98627
513.763,-624.385,98569
513.701,-626.749,98338
513.638,-629.112,98121
513.576,-631.477,98345
513.514,-633.842,97727
513.451,-636.207,98054
513.389,-638.573,97483
513.326,-640.94,97271
513.264,-643.307,97767
513.202,-645.675,97053
513.139,-648.043,96815
513.077,-650.412,96918
513.015,-652.782,96812
512.952,-655.152,96820
512.89,-657.523,96507
512.827,-659.894,96595
512.765,-662.266,96425
512.703,-664.638,95925
512.64,-667.011,95792
512.578,-669.385,96123
512.516,-671.759,95694
512.453,-674.134,95495
512.391,-676.509,95140
512.328,-678.885,95023
512.266,-681.261,94958
512.204,-683.638,94936
512.141,-686.016,94780
512.079,-688.394,94831
512.017,-690.773,94905
511.954,-693.152,93933
511.892,-695.532,94144
511.83,-697.913,94180
511.767,-700.294,93946
511.705,-702.676,93526
511.642,-705.058,93955
511.58,-707.441,93090
511.518,-709.824,93247
511.455,-712.208,92942
511.393,-714.593,92745
511.331,-716.978,92973
511.268,-719.364,92441
511.206,-721.75,92414
511.143,-724.137,92407
511.081,-726.525,92247
511.019,-728.913,92034
510.956,-731.301,91927
510.894,-733.691,92179
510.832,-736.08,91627
510.769,-738.471,91665
510.707,-740.862,91667
510.644,-743.253,91150
510.582,-745.646,91023
510.52,-748.038,90763
510.457,-750.432,90631
510.395,-752.826,90617
510.333,-755.22,90615
510.27,-757.615,90487
510.208,-760.011,90434
510.146,-762.407,90065
510.083,-764.804,90076
510.021,-767.201,89482
509.958,-769.599,89741
509.896,-771.998,89535
509.834,-774.397,89496
509.771,-776.797,88928
509.709,-779.197,89349
509.647,-781.598,88863
509.584,-784,88729
509.522,-786.402,88418
509.459,-788.805,88207
509.397,-791.208,88266
509.335,-793.612,88199
509.272,-796.016,87911
509.21,-798.421,88079
509.148,-800.827,88064
509.085,-803.233,87702
509.023,-805.64,87609
508.96,-808.048,87414
508.898,-810.456,87155
508.836,-812.864,87245
508.773,-815.274,86954
508.711,-817.683,86992
525.364,-194.586,72690
525.301,-196.846,72523
525.239,-199.106,72904
525.177,-201.367,72710
525.114,-203.629,72833
525.052,-205.891,72699
524.99,-208.154,72998
524.927,-210.417,73176
524.865,-212.681,73091
524.802,-214.945,73326
524.74,-217.21,73297
524.678,-219.475,73236
524.615,-221.741,73084
524.553,-224.008,73458
524.491,-226.275,73247
524.428,-228.542,73277
524.366,-230.81,73396
524.304,-233.079,73473
524.241,-235.348,73736
524.179,-237.618,73763
524.116,-239.888,73795
524.054,-242.159,73954
523.992,-244.43,74067
523.929,-246.702,74227
523.867,-248.974,74286
523.805,-251.247,74531
523.742,-253.52,74533
523.68,-255.794,75214
523.617,-258.069,75417
523.555,-260.344,76878
523.493,-262.62,78182
523.43,-264.896,80534
523.368,-267.173,83089
523.306,-269.45,86753
523.243,-271.728,91840
523.181,-274.006,96715
523.119,-276.285,102005
523.056,-278.564,107146
522.994,-280.844,111162
522.931,-283.125,114032
522.869,-285.406,117520
522.807,-287.688,119707
522.744,-289.97,120366
522.682,-292.252,121677
522.62,-294.536,121776
522.557,-296.82,121974
522.495,-299.104,122317
522.432,-301.389,122511
522.37,-303.674,122790
522.308,-305.96,122827
522.245,-308.247,122266
522.183,-310.534,122746
522.121,-312.821,122681
522.058,-315.11,122417
521.996,-317.398,121672
521.933,-319.687,121552
521.871,-321.977,120992
521.809,-324.268,120257
521.746,-326.559,120722
521.684,-328.85,120616
521.622,-331.142,120595
521.559,-333.434,120582
521.497,-335.728,119697
521.435,-338.021,119987
521.372,-340.315,119939
521.31,-342.61,119353
521.247,-344.905,119305
521.185,-347.201,119478
521.123,-349.498,119040
521.06,-351.795,119058
520.998,-354.092,119546
520.936,-356.39,118537
520.873,-358.689,118146
520.811,-360.988,117688
520.748,-363.287,117650
520.686,-365.588,117745
520.624,-367.889,117286
520.561,-370.19,117057
520.499,-372.492,116178
520.437,-374.794,116644
520.374,-377.097,116707
520.312,-379.401,116331
520.249,-381.705,116637
520.187,-384.009,115528
520.125,-386.315,115933
520.062,-388.62,115323
520.0,-390.927,115439
519.938,-393.234,115099
519.875,-395.541,114818
519.813,-397.849,114310
519.751,-400.158,114502
519.688,-402.467,114802
519.626,-404.776,114423
519.563,-407.086,113964
519.501,-409.397,114227
519.439,-411.708,113437
519.376,-414.02,113111
519.314,-416.333,112829
519.252,-418.646,112561
519.189,-420.959,112666
519.127,-423.273,112426
519.064,-425.588,111589
519.002,-427.903,111573
518.94,-430.219,111005
518.877,-432.535,110858
518.815,-434.852,110247
518.753,-437.169,110379
518.69,-439.487,110407
518.628,-441.806,110188
518.565,-444.125,110122
518.503,-446.445,109095
518.441,-448.765,109351
518.378,-451.086,109027
518.316,-453.407,108794
518.254,-455.729,108936
518.191,-458.051,108678
518.129,-460.374,108612
518.067,-462.698,108503
518.004,-465.022,107979
517.942,-467.347,107696
517.879,-469.672,108526
517.817,-471.998,107358
517.755,-474.324,107542
517.692,-476.651,107480
517.63,-478.978,107292
517.568,-481.306,106755
517.505,-483.635,107106
517.443,-485.964,106817
517.38,-488.294,106224
517.318,-490.624,106269
517.256,-492.955,106465
517.193,-495.286,106288
517.131,-497.618,105926
517.069,-499.951,105935
517.006,-502.284,106337
516.944,-504.618,105776
516.881,-506.952,105473
516.819,-509.287,105417
516.757,-511.622,104948
516.694,-513.958,105507
516.632,-516.294,105235
516.57,-518.631,105453
516.507,-520.969,105263
516.445,-523.307,105528
516.383,-525.646,105477
516.32,-527.985,105369
516.258,-530.325,105100
516.195,-532.665,105016
516.133,-535.006,104550
516.071,-537.348,105038
516.008,-539.69,104620
515.946,-542.033,104410
515.884,-544.376,104220
515.821,-546.72,104227
515.759,-549.064,104657
515.696,-551.409,104010
515.634,-553.755,103918
515.572,-556.101,104171
515.509,-558.448,103724
515.447,-560.795,104416
515.385,-563.143,103788
515.322,-565.491,103592
515.26,-567.84,103620
515.198,-570.189,103144
515.135,-572.539,103309
515.073,-574.89,103478
515.01,-577.241,103356
514.948,-579.593,102651
514.886,-581.945,102744
514.823,-584.298,102978
514.761,-586.652,103085
514.699,-589.006,102869
514.636,-591.361,102504
514.574,-593.716,102620
514.511,-596.072,102326
514.449,-598.428,102339
514.387,-600.785,102582
514.324,-603.142,102187
514.262,-605.5,101739
514.2,-607.859,101752
514.137,-610.218,102140
514.075,-612.578,101903
514.012,-614.938,101421
513.95,-617.299,101155
513.888,-619.661,100935
513.825,-622.023,101214
513.763,-624.385,101102
513.701,-626.749,100777
513.638,-629.112,100342
513.576,-631.477,100522
513.514,-633.842,99846
513.451,-636.207,100008
513.389,-638.573,99640
513.326,-640.94,100574
513.264,-643.307,99633
513.202,-645.675,99541
513.139,-648.043,99346
513.077,-650.412,99589
513.015,-652.782,99391
512.952,-655.152,98641
512.89,-657.523,98745
512.827,-659.894,98742
512.765,-662.266,98549
512.703,-664.638,98223
512.64,-667.011,98041
512.578,-669.385,98207
512.516,-671.759,97884
512.453,-674.134,97742
512.391,-676.509,97841
512.328,-678.885,97181
512.266,-681.261,97822
512.204,-683.638,97302
512.141,-686.016,96920
512.079,-688.394,96971
512.017,-690.773,96578
511.954,-693.152,96987
511.892,-695.532,96555
511.83,-697.913,96277
511.767,-700.294,96325
511.705,-702.676,95985
511.642,-705.058,95603
511.58,-707.441,95430
511.518,-709.824,95631
511.455,-712.208,95176
511.393,-714.593,95017
511.331,-716.978,94796
511.268,-719.364,94729
511.206,-721.75,95208
511.143,-724.137,94381
511.081,-726.525,94690
511.019,-728.913,94308
510.956,-731.301,94007
510.894,-733.691,94081
510.832,-736.08,94149
510.769,-738.471,94076
510.707,-740.862,93354
510.644,-743.253,93758
510.582,-745.646,93123
510.52,-748.038,93001
510.457,-750.432,92498
510.395,-752.826,93004
510.333,-755.22,92582
510.27,-757.615,92465
510.208,-760.011,92249
510.146,-762.407,92038
510.083,-764.804,92277
510.021,-767.201,91947
509.958,-769.599,91465
509.896,-771.998,91674
509.834,-774.397,91204
509.771,-776.797,91251
509.709,-779.197,90894
509.647,-781.598,90479
509.584,-784,90258
509.522,-786.402,90652
509.459,-788.805,90199
509.397,-791.208,89845
509.335,-793.612,89760
509.272,-796.016,89631
509.21,-798.421,89854
509.148,-800.827,89607
509.085,-803.233,89751
509.023,-805.64,89101
508.96,-808.048,89135
508.898,-810.456,88952
508.836,-812.864,89058
508.773,-815.274,88885
508.711,-817.683,88513
525.364,-194.586,72332
525.301,-196.846,72475
525.239,-199.106,72675
525.177,-201.367,72488
525.114,-203.629,72633
525.052,-205.891,72383
524.99,-208.154,72849
524.927,-210.417,73093
524.865,-212.681,72855
524.802,-214.945,73058
524.74,-217.21,72864
524.678,-219.475,73147
524.615,-221.741,73144
524.553,-224.008,73228
524.491,-226.275,73195
524.428,-228.542,73496
524.366,-230.81,73264
524.304,-233.079,73406
524.241,-235.348,73634
524.179,-237.618,73324
524.116,-239.888,73526
524.054,-242.159,73468
523.992,-244.43,73754
523.929,-246.702,73883
523.867,-248.974,74067
523.805,-251.247,74242
523.742,-253.52,74658
523.68,-255.794,75015
523.617,-258.069,75727
523.555,-260.344,76576
523.493,-262.62,77667
523.43,-264.896,79994
523.368,-267.173,82415
523.306,-269.45,86496
523.243,-271.728,91074
523.181,-274.006,96799
523.119,-276.285,101484
523.056,-278.564,106328
522.994,-280.844,110320
522.931,-283.125,113640
522.869,-285.406,116018
522.807,-287.688,118351
522.744,-289.97,118761
522.682,-292.252,119841
522.62,-294.536,120784
522.557,-296.82,121480
522.495,-299.104,121514
522.432,-301.389,121037
522.37,-303.674,121503
522.308,-305.96,120262
522.245,-308.247,121101
522.183,-310.534,121068
522.121,-312.821,120428
522.058,-315.11,120914
521.996,-317.398,120540
521.933,-319.687,119580
521.871,-321.977,120510
521.809,-324.268,120206
521.746,-326.559,119182
521.684,-328.85,119700
521.622,-331.142,118982
521.559,-333.434,119340
521.497,-335.728,140790
521.435,-338.021,119188
521.372,-340.315,118711
521.31,-342.61,118379
521.247,-344.905,118866
521.185,-347.201,118524
521.123,-349.498,117650
521.06,-351.795,117860
520.998,-354.092,117738
520.936,-356.39,117379
520.873,-358.689,117743
520.811,-360.988,116865
520.748,-363.287,116210
520.686,-365.588,116494
520.624,-367.889,116605
520.561,-370.19,115837
520.499,-372.492,115179
520.437,-374.794,114882
520.374,-377.097,114762
520.312,-379.401,114534
520.249,-381.705,114306
520.187,-384.009,114438
520.125,-386.315,114735
520.062,-388.62,114678
520.0,-390.927,114066
519.938,-393.234,113460
519.875,-395.541,114077
519.813,-397.849,114390
519.751,-400.158,113194
519.688,-402.467,113649
519.626,-404.776,112960
519.563,-407.086,112758
519.501,-409.397,113029
519.439,-411.708,112065
519.376,-414.02,112682
519.314,-416.333,111964
519.252,-418.646,111481
519.189,-420.959,111052
519.127,-423.273,111288
519.064,-425.588,110970
519.002,-427.903,110402
518.94,-430.219,110142
518.877,-432.535,109805
518.815,-434.852,109291
518.753,-437.169,109336
518.69,-439.487,108471
518.628,-441.806,109015
518.565,-444.125,108444
518.503,-446.445,108172
518.441,-448.765,108970
518.378,-451.086,107724
518.316,-453.407,107871
518.254,-455.729,108165
518.191,-458.051,107504
518.129,-460.374,107722
518.067,-462.698,107630
518.004,-465.022,106997
517.942,-467.347,107363
517.879,-469.672,106455
517.817,-471.998,106523
517.755,-474.324,106831
517.692,-476.651,106153
517.63,-478.978,106086
517.568,-481.306,105871
517.505,-483.635,105626
517.443,-485.964,105594
517.38,-488.294,105309
517.318,-490.624,104998
517.256,-492.955,105255
517.193,-495.286,105408
517.131,-497.618,105064
517.069,-499.951,105315
517.006,-502.284,104846
516.944,-504.618,104997
516.881,-506.952,104517
516.819,-509.287,104581
516.757,-511.622,105068
516.694,-513.958,104725
516.632,-516.294,104627
516.57,-518.631,104608
516.507,-520.969,104667
516.445,-523.307,104233
516.383,-525.646,104186
516.32,-527.985,104193
516.258,-530.325,103900
516.195,-532.665,103937
516.133,-535.006,103973
516.071,-537.348,103968
516.008,-539.69,103584
515.946,-542.033,104165
515.884,-544.376,103705
515.821,-546.72,103593
515.759,-549.064,103138
515.696,-551.409,103089
515.634,-553.755,102835
515.572,-556.101,102917
515.509,-558.448,103225
515.447,-560.795,103262
515.385,-563.143,102437
515.322,-565.491,102160
515.26,-567.84,102621
515.198,-570.189,102550
515.135,-572.539,102205
515.073,-574.89,102335
515.01,-577.241,102123
514.948,-579.593,101738
514.886,-581.945,102026
514.823,-584.298,102130
514.761,-586.652,102384
514.699,-589.006,101469
514.636,-591.361,101587
514.574,-593.716,101382
514.511,-596.072,101533
514.449,-598.428,101542
514.387,-600.785,101359
514.324,-603.142,101059
514.262,-605.5,100733
514.2,-607.859,101333
514.137,-610.218,100828
514.075,-612.578,101046
514.012,-614.938,100628
513.95,-617.299,100429
513.888,-619.661,100263
513.825,-622.023,100280
513.763,-624.385,100165
513.701,-626.749,99846
513.638,-629.112,99880
513.576,-631.477,99546
513.514,-633.842,99445
513.451,-636.207,99311
513.389,-638.573,99256
513.326,-640.94,99493
513.264,-643.307,98695
513.202,-645.675,99170
513.139,-648.043,98581
513.077,-650.412,98557
513.015,-652.782,98454
512.952,-655.152,98635
512.89,-657.523,97953
512.827,-659.894,98405
512.765,-662.266,98103
512.703,-664.638,97646
512.64,-667.011,97216
512.578,-669.385,97508
512.516,-671.759,97515
512.453,-674.134,97067
512.391,-676.509,97053
512.328,-678.885,97543
512.266,-681.261,96934
512.204,-683.638,96504
512.141,-686.016,96557
512.079,-688.394,96120
512.017,-690.773,96195
511.954,-693.152,95537
511.892,-695.532,95823
511.83,-697.913,95532
511.767,-700.294,95584
511.705,-702.676,94687
511.642,-705.058,94921
511.58,-707.441,95053
511.518,-709.824,95182
511.455,-712.208,94797
511.393,-714.593,94311
511.331,-716.978,94670
511.268,-719.364,94407
511.206,-721.75,93659
511.143,-724.137,94250
511.081,-726.525,94214
511.019,-728.913,93737
510.956,-731.301,93553
510.894,-733.691,93551
510.832,-736.08,92865
510.769,-738.471,93181
510.707,-740.862,92942
510.644,-743.253,93105
510.582,-745.646,92450
510.52,-748.038,92263
510.457,-750.432,92302
510.395,-752.826,92104
510.333,-755.22,91757
510.27,-757.615,91645
510.208,-760.011,91975
510.146,-762.407,91523
510.083,-764.804,91444
510.021,-767.201,91659
509.958,-769.599,91012
509.896,-771.998,91011
509.834,-774.397,90341
509.771,-776.797,90640
509.709,-779.197,89734
509.647,-781.598,89701
509.584,-784,90211
509.522,-786.402,89693
509.459,-788.805,90047
509.397,-791.208,89845
509.335,-793.612,89602
509.272,-796.016,89490
509.21,-798.421,89226
509.148,-800.827,89007
509.085,-803.233,89169
509.023,-805.64,88931
508.96,-808.048,88852
508.898,-810.456,88624
508.836,-812.864,88490
508.773,-815.274,88282
508.711,-817.683,88225
525.364,-194.586,65494
525.301,-196.846,65625
525.239,-199.106,65835
525.177,-201.367,65693
525.114,-203.629,65892
525.052,-205.891,65879
524.99,-208.154,65695
524.927,-210.417,65806
524.865,-212.681,66000
524.802,-214.945,65829
524.74,-217.21,66006
524.678,-219.475,66040
524.615,-221.741,65949
524.553,-224.008,66176
524.491,-226.275,66279
524.428,-228.542,66156
524.366,-230.81,65952
524.304,-233.079,65998
524.241,-235.348,66167
524.179,-237.618,66229
524.116,-239.888,66075
524.054,-242.159,66165
523.992,-244.43,66105
523.929,-246.702,66159
523.867,-248.974,66152
523.805,-251.247,66336
523.742,-253.52,66445
523.68,-255.794,66567
523.617,-258.069,66771
523.555,-260.344,66978
523.493,-262.62,67320
523.43,-264.896,67784
523.368,-267.173,68806
523.306,-269.45,69810
523.243,-271.728,71016
523.181,-274.006,72448
523.119,-276.285,74158
523.056,-278.564,75200
522.994,-280.844,76279
522.931,-283.125,77193
522.869,-285.406,77916
522.807,-287.688,78448
522.744,-289.97,78423
522.682,-292.252,79213
522.62,-294.536,78979
522.557,-296.82,78992
522.495,-299.104,78977
522.432,-301.389,79249
522.37,-303.674,78773
522.308,-305.96,79004
522.245,-308.247,78905
522.183,-310.534,79058
522.121,-312.821,79037
522.058,-315.11,79126
521.996,-317.398,78875
521.933,-319.687,78666
521.871,-321.977,78667
521.809,-324.268,78254
521.746,-326.559,78570
521.684,-328.85,78569
521.622,-331.142,78379
521.559,-333.434,78007
521.497,-335.728,78195
521.435,-338.021,77879
521.372,-340.315,78284
521.31,-342.61,78032
521.247,-344.905,77678
521.185,-347.201,77907
521.123,-349.498,77905
521.06,-351.795,77816
520.998,-354.092,77831
520.936,-356.39,77540
520.873,-358.689,77502
520.811,-360.988,77614
520.748,-363.287,77354
520.686,-365.588,77332
520.624,-367.889,77154
520.561,-370.19,76994
520.499,-372.492,77084
520.437,-374.794,76770
520.374,-377.097,76901
520.312,-379.401,76609
520.249,-381.705,76518
520.187,-384.009,76593
520.125,-386.315,76348
520.062,-388.62,76365
520.0,-390.927,76414
519.938,-393.234,76131
519.875,-395.541,76521
519.813,-397.849,76246
519.751,-400.158,76030
519.688,-402.467,75997
519.626,-404.776,76101
519.563,-407.086,75985
519.501,-409.397,75518
519.439,-411.708,75722
519.376,-414.02,75526
519.314,-416.333,75274
519.252,-418.646,75455
519.189,-420.959,75486
519.127,-423.273,75228
519.064,-425.588,74809
519.002,-427.903,74434
518.94,-430.219,74867
518.877,-432.535,74695
518.815,-434.852,74547
518.753,-437.169,74646
518.69,-439.487,74249
518.628,-441.806,74232
518.565,-444.125,74285
518.503,-446.445,74176
518.441,-448.765,73954
518.378,-451.086,74145
518.316,-453.407,73977
518.254,-455.729,74068
518.191,-458.051,74016
518.129,-460.374,73690
518.067,-462.698,73758
518.004,-465.022,73731
517.942,-467.347,73430
517.879,-469.672,73489
517.817,-471.998,73358
517.755,-474.324,73215
517.692,-476.651,72990
517.63,-478.978,73029
517.568,-481.306,72943
517.505,-483.635,73074
517.443,-485.964,72838
517.38,-488.294,73144
517.318,-490.624,72648
517.256,-492.955,72661
517.193,-495.286,72982
517.131,-497.618,72920
517.069,-499.951,72841
517.006,-502.284,72596
516.944,-504.618,72834
516.881,-506.952,72702
516.819,-509.287,72744
516.757,-511.622,72890
516.694,-513.958,72540
516.632,-516.294,72540
516.57,-518.631,72443
516.507,-520.969,72618
516.445,-523.307,72511
516.383,-525.646,72592
516.32,-527.985,72564
516.258,-530.325,72312
516.195,-532.665,72465
516.133,-535.006,72475
516.071,-537.348,72581
516.008,-539.69,72309
515.946,-542.033,72376
515.884,-544.376,72223
515.821,-546.72,72070
515.759,-549.064,72196
515.696,-551.409,72554
515.634,-553.755,72028
515.572,-556.101,72481
515.509,-558.448,72028
515.447,-560.795,72238
515.385,-563.143,72117
515.322,-565.491,71730
515.26,-567.84,71972
515.198,-570.189,71994
515.135,-572.539,72069
515.073,-574.89,71936
515.01,-577.241,71826
514.948,-579.593,71874
514.886,-581.945,71669
514.823,-584.298,71880
514.761,-586.652,71953
514.699,-589.006,71747
514.636,-591.361,71968
514.574,-593.716,71962
514.511,-596.072,71749
514.449,-598.428,71919
514.387,-600.785,71796
514.324,-603.142,71631
514.262,-605.5,71681
514.2,-607.859,71449
514.137,-610.218,71456
514.075,-612.578,71352
514.012,-614.938,71694
513.95,-617.299,71458
513.888,-619.661,71189
513.825,-622.023,71136
513.763,-624.385,71324
513.701,-626.749,71599
513.638,-629.112,71153
513.576,-631.477,71178
513.514,-633.842,71227
513.451,-636.207,71009
513.389,-638.573,70847
513.326,-640.94,71277
513.264,-643.307,70989
513.202,-645.675,70993
513.139,-648.043,70721
513.077,-650.412,70882
513.015,-652.782,70730
512.952,-655.152,70743
512.89,-657.523,70872
512.827,-659.894,70782
512.765,-662.266,70576
512.703,-664.638,70449
512.64,-667.011,70414
512.578,-669.385,70513
512.516,-671.759,70760
512.453,-674.134,70232
512.391,-676.509,70340
512.328,-678.885,70342
512.266,-681.261,70294
512.204,-683.638,70489
512.141,-686.016,70313
512.079,-688.394,69933
512.017,-690.773,70200
511.954,-693.152,69878
511.892,-695.532,69904
511.83,-697.913,70146
511.767,-700.294,69937
511.705,-702.676,69974
511.642,-705.058,70132
511.58,-707.441,69775
511.518,-709.824,69836
511.455,-712.208,69639
511.393,-714.593,69574
511.331,-716.978,69576
511.268,-719.364,69731
511.206,-721.75,69712
511.143,-724.137,69520
511.081,-726.525,69449
511.019,-728.913,69448
510.956,-731.301,69555
510.894,-733.691,69359
510.832,-736.08,69442
510.769,-738.471,69136
510.707,-740.862,69461
510.644,-743.253,69029
510.582,-745.646,69250
510.52,-748.038,69028
510.457,-750.432,69067
510.395,-752.826,68988
510.333,-755.22,68895
510.27,-757.615,68866
510.208,-760.011,69208
510.146,-762.407,68797
510.083,-764.804,68798
510.021,-767.201,68835
509.958,-769.599,68830
509.896,-771.998,68834
509.834,-774.397,68494
509.771,-776.797,68738
509.709,-779.197,68591
509.647,-781.598,68435
509.584,-784,68699
509.522,-786.402,68473
509.459,-788.805,68505
509.397,-791.208,68291
509.335,-793.612,68518
509.272,-796.016,68318
509.21,-798.421,68321
509.148,-800.827,68066
509.085,-803.233,68245
509.023,-805.64,67982
508.96,-808.048,68041
508.898,-810.456,68055
508.836,-812.864,68142
508.773,-815.274,67764
508.711,-817.683,67885
525.364,-194.586,64215
525.301,-196.846,64358
525.239,-199.106,64399
525.177,-201.367,64473
525.114,-203.629,64525
525.052,-205.891,64668
524.99,-208.154,64473
524.927,-210.417,64534
524.865,-212.681,64662
524.802,-214.945,64724
524.74,-217.21,64597
524.678,-219.475,64535
524.615,-221.741,64530
524.553,-224.008,64450
524.491,-226.275,64575
524.428,-228.542,64719
524.366,-230.81,64703
524.304,-233.079,64830
524.241,-235.348,64723
524.179,-237.618,64821
524.116,-239.888,64551
524.054,-242.159,64718
523.992,-244.43,64880
523.929,-246.702,64760
523.867,-248.974,64961
523.805,-251.247,64901
523.742,-253.52,65056
523.68,-255.794,64951
523.617,-258.069,65206
523.555,-260.344,65363
523.493,-262.62,65698
523.43,-264.896,66033
523.368,-267.173,66546
523.306,-269.45,67287
523.243,-271.728,68451
523.181,-274.006,69263
523.119,-276.285,70430
523.056,-278.564,71146
522.994,-280.844,71965
522.931,-283.125,72717
522.869,-285.406,73098
522.807,-287.688,73486
522.744,-289.97,73641
522.682,-292.252,73749
522.62,-294.536,74091
522.557,-296.82,73905
522.495,-299.104,74286
522.432,-301.389,74217
522.37,-303.674,74064
522.308,-305.96,74141
522.245,-308.247,74462
522.183,-310.534,73761
522.121,-312.821,73990
522.058,-315.11,73842
521.996,-317.398,73769
521.933,-319.687,73719
521.871,-321.977,73526
521.809,-324.268,73632
521.746,-326.559,73676
521.684,-328.85,73449
521.622,-331.142,73493
521.559,-333.434,73545
521.497,-335.728,73315
521.435,-338.021,78463
521.372,-340.315,73173
521.31,-342.61,73325
521.247,-344.905,73143
521.185,-347.201,73035
521.123,-349.498,72813
521.06,-351.795,72909
520.998,-354.092,72917
520.936,-356.39,72609
520.873,-358.689,72767
520.811,-360.988,72767
520.748,-363.287,72468
520.686,-365.588,72525
520.624,-367.889,72743
520.561,-370.19,72518
520.499,-372.492,72509
520.437,-374.794,72242
520.374,-377.097,72178
520.312,-379.401,72098
520.249,-381.705,72300
520.187,-384.009,71973
520.125,-386.315,72179
520.062,-388.62,71980
520.0,-390.927,71891
519.938,-393.234,71502
519.875,-395.541,71879
519.813,-397.849,71858
519.751,-400.158,71755
519.688,-402.467,71682
519.626,-404.776,71427
519.563,-407.086,71773
519.501,-409.397,71301
519.439,-411.708,71413
519.376,-414.02,71373
519.314,-416.333,71154
519.252,-418.646,71280
519.189,-420.959,71012
519.127,-423.273,71153
519.064,-425.588,71087
519.002,-427.903,70983
518.94,-430.219,70816
518.877,-432.535,70688
518.815,-434.852,70429
518.753,-437.169,70387
518.69,-439.487,70478
518.628,-441.806,70382
518.565,-444.125,70253
518.503,-446.445,70286
518.441,-448.765,70611
518.378,-451.086,70084
518.316,-453.407,70078
518.254,-455.729,69863
518.191,-458.051,69765
518.129,-460.374,70214
518.067,-462.698,69824
518.004,-465.022,70045
517.942,-467.347,69859
517.879,-469.672,69586
517.817,-471.998,69620
517.755,-474.324,69530
517.692,-476.651,69671
517.63,-478.978,69738
517.568,-481.306,69466
517.505,-483.635,69629
517.443,-485.964,69518
517.38,-488.294,69176
517.318,-490.624,69364
517.256,-492.955,69187
517.193,-495.286,69218
517.131,-497.618,69467
517.069,-499.951,69091
517.006,-502.284,69372
516.944,-504.618,69190
516.881,-506.952,69199
516.819,-509.287,69087
516.757,-511.622,69288
516.694,-513.958,69005
516.632,-516.294,69000
516.57,-518.631,69173
516.507,-520.969,69045
516.445,-523.307,68967
516.383,-525.646,69231
516.32,-527.985,69068
516.258,-530.325,68928
516.195,-532.665,69088
516.133,-535.006,69042
516.071,-537.348,68992
516.008,-539.69,69016
515.946,-542.033,68999
515.884,-544.376,68873
515.821,-546.72,69070
515.759,-549.064,68725
515.696,-551.409,68915
515.634,-553.755,68927
515.572,-556.101,68959
515.509,-558.448,68584
515.447,-560.795,68831
515.385,-563.143,68818
515.322,-565.491,68850
515.26,-567.84,68685
515.198,-570.189,68753
515.135,-572.539,68588
515.073,-574.89,68785
515.01,-577.241,68712
514.948,-579.593,68501
514.886,-581.945,68663
514.823,-584.298,68436
514.761,-586.652,68685
514.699,-589.006,68615
514.636,-591.361,68704
514.574,-593.716,68476
514.511,-596.072,68452
514.449,-598.428,68414
514.387,-600.785,68178
514.324,-603.142,68408
514.262,-605.5,68154
514.2,-607.859,68378
514.137,-610.218,68337
514.075,-612.578,68350
514.012,-614.938,68239
513.95,-617.299,68121
513.888,-619.661,68221
513.825,-622.023,68253
513.763,-624.385,68247
513.701,-626.749,68098
513.638,-629.112,67975
513.576,-631.477,67933
513.514,-633.842,68102
513.451,-636.207,67757
513.389,-638.573,68016
513.326,-640.94,68060
513.264,-643.307,67950
513.202,-645.675,67849
513.139,-648.043,67943
513.077,-650.412,67912
513.015,-652.782,67952
512.952,-655.152,67726
512.89,-657.523,67664
512.827,-659.894,67712
512.765,-662.266,67565
512.703,-664.638,67542
512.64,-667.011,67457
512.578,-669.385,67641
512.516,-671.759,67421
512.453,-674.134,67594
512.391,-676.509,67611
512.328,-678.885,67536
512.266,-681.261,67198
512.204,-683.638,67508
512.141,-686.016,67520
512.079,-688.394,67409
512.017,-690.773,67354
511.954,-693.152,67348
511.892,-695.532,67176
511.83,-697.913,67227
511.767,-700.294,67135
511.705,-702.676,67078
511.642,-705.058,66975
511.58,-707.441,67243
511.518,-709.824,66971
511.455,-712.208,66900
511.393,-714.593,66937
511.331,-716.978,66965
511.268,-719.364,66809
511.206,-721.75,66960
511.143,-724.137,66960
511.081,-726.525,67017
511.019,-728.913,67004
510.956,-731.301,67022
510.894,-733.691,66703
510.832,-736.08,66799
510.769,-738.471,66712
510.707,-740.862,66760
510.644,-743.253,66697
510.582,-745.646,66748
510.52,-748.038,66723
510.457,-750.432,66530
510.395,-752.826,66467
510.333,-755.22,66577
510.27,-757.615,66586
510.208,-760.011,66372
510.146,-762.407,66258
510.083,-764.804,66385
510.021,-767.201,66482
509.958,-769.599,66376
509.896,-771.998,66505
509.834,-774.397,66322
509.771,-776.797,66121
509.709,-779.197,66284
509.647,-781.598,66155
509.584,-784,66328
509.522,-786.402,66111
509.459,-788.805,65945
509.397,-791.208,66116
509.335,-793.612,65898
509.272,-796.016,65910
509.21,-798.421,66127
509.148,-800.827,66220
509.085,-803.233,66093
509.023,-805.64,65966
508.96,-808.048,66080
508.898,-810.456,65864
508.836,-812.864,65905
508.773,-815.274,65887
508.711,-817.683,65897
508.661,-819.612,65852