File: tomke/20240809/raw_data/Si_onTiO2_0mA_30mW_30sec_4acc_545nm.txt
Wavelength(nm), Raman shift(cm^-1), Intensity(counts)
552.12,727.839,59880
552.078,726.446,60234
552.035,725.052,60214
551.993,723.658,60257
551.95,722.264,60235
551.908,720.869,60164
551.865,719.475,60140
551.823,718.08,60087
551.78,716.685,60164
551.738,715.29,60148
551.695,713.894,60188
551.653,712.499,60168
551.61,711.103,60163
551.568,709.707,60144
551.525,708.31,60096
551.483,706.914,60091
551.44,705.517,60057
551.398,704.12,60163
551.355,702.723,60117
551.313,701.326,60073
551.271,699.928,60175
551.228,698.53,60129
551.186,697.132,60130
551.143,695.734,60194
551.101,694.336,60060
551.058,692.937,60184
551.016,691.538,60138
550.973,690.139,60178
550.931,688.74,60142
550.888,687.34,60084
550.846,685.94,60175
550.803,684.54,60189
550.761,683.14,60129
550.718,681.74,60094
550.676,680.339,60227
550.633,678.938,60104
550.591,677.537,60216
550.548,676.136,60154
550.506,674.735,60104
550.463,673.333,60235
550.421,671.931,60178
550.379,670.529,60170
550.336,669.127,60182
550.294,667.724,60224
550.251,666.321,60206
550.209,664.918,60245
550.166,663.515,60272
550.124,662.112,60207
550.081,660.708,60220
550.039,659.304,60189
549.996,657.9,60214
549.954,656.496,60237
549.911,655.091,60369
549.869,653.686,60254
549.826,652.282,60224
549.784,650.876,60218
549.741,649.471,60264
549.699,648.065,60351
549.656,646.66,60330
549.614,645.254,60286
549.571,643.847,60264
549.529,642.441,60228
549.487,641.034,60255
549.444,639.627,60247
549.402,638.22,60258
549.359,636.813,60278
549.317,635.405,60245
549.274,633.997,60274
549.232,632.589,60302
549.189,631.181,60330
549.147,629.773,60345
549.104,628.364,60274
549.062,626.955,60290
549.019,625.546,60346
548.977,624.137,60198
548.934,622.727,60322
548.892,621.318,60405
548.849,619.908,60272
548.807,618.498,60407
548.764,617.087,60290
548.722,615.677,60435
548.679,614.266,60348
548.637,612.855,60281
548.595,611.444,60361
548.552,610.032,60504
548.51,608.62,60445
548.467,607.208,60501
548.425,605.796,60374
548.382,604.384,60446
548.34,602.971,60418
548.297,601.559,60376
548.255,600.146,60431
548.212,598.732,60383
548.17,597.319,60386
548.127,595.905,60291
548.085,594.491,60337
548.042,593.077,60355
548,591.663,60285
547.957,590.248,60210
547.915,588.834,60268
547.872,587.419,60298
547.83,586.003,60209
547.787,584.588,60261
547.745,583.172,60243
547.703,581.756,60283
547.66,580.34,60232
547.618,578.924,60197
547.575,577.508,60185
547.533,576.091,60262
547.49,574.674,60241
547.448,573.257,60225
547.405,571.839,60248
547.363,570.422,60248
547.32,569.004,60217
547.278,567.586,64296
547.235,566.168,60173
547.193,564.749,60165
547.15,563.33,60233
547.108,561.911,60113
547.065,560.492,60215
547.023,559.073,60187
546.98,557.653,60183
546.938,556.233,60218
546.895,554.813,60230
546.853,553.393,60198
546.811,551.973,60335
546.768,550.552,60263
546.726,549.131,60151
546.683,547.71,60380
546.641,546.288,60266
546.598,544.867,60299
546.556,543.445,60303
546.513,542.023,60468
546.471,540.601,60293
546.428,539.178,60465
546.386,537.756,60560
546.343,536.333,60549
546.301,534.91,60547
546.258,533.486,60737
546.216,532.063,60847
546.173,530.639,60959
546.131,529.215,61089
546.088,527.791,61352
546.046,526.366,61630
546.003,524.941,62069
545.961,523.517,62984
545.919,522.091,64513
545.876,520.666,68134
545.834,519.24,78891
545.791,517.815,102291
545.749,516.389,119560
545.706,514.962,110942
545.664,513.536,90799
545.621,512.109,76505
545.579,510.682,68653
545.536,509.255,64603
545.494,507.828,62932
545.451,506.4,62077
545.409,504.973,61595
545.366,503.545,61314
545.324,502.116,61062
545.281,500.688,60996
545.239,499.259,60791
545.196,497.83,60755
545.154,496.401,60590
545.111,494.972,60661
545.069,493.542,60576
545.027,492.112,60453
544.984,490.682,60443
544.942,489.252,60371
544.899,487.822,60462
544.857,486.391,60454
544.814,484.96,60350
544.772,483.529,60239
544.729,482.098,60335
544.687,480.666,60379
544.644,479.234,60356
544.602,477.802,60261
544.559,476.37,60322
544.517,474.937,60207
544.474,473.505,60248
544.432,472.072,60302
544.389,470.639,60311
544.347,469.205,60247
544.304,467.772,60224
544.262,466.338,60166
544.22,464.904,60171
544.177,463.47,60265
544.135,462.035,60123
544.092,460.6,60180
544.05,459.165,60283
544.007,457.73,60272
543.965,456.295,60296
543.922,454.859,60333
543.88,453.423,60380
543.837,451.987,60334
543.795,450.551,60330
543.752,449.115,60361
543.71,447.678,60395
543.667,446.241,60408
543.625,444.804,60352
543.582,443.366,60430
543.54,441.929,60446
543.497,440.491,60441
543.455,439.053,60407
543.412,437.614,60422
543.37,436.176,60388
543.328,434.737,60392
543.285,433.298,60403
543.243,431.859,60466
543.2,430.42,60445
543.158,428.98,60381
543.115,427.54,60366
543.073,426.1,60411
543.03,424.66,60475
542.988,423.219,60402
542.945,421.778,60459
542.903,420.337,60404
542.86,418.896,60416
542.818,417.455,60480
542.775,416.013,60422
542.733,414.571,60416
542.69,413.129,60480
542.648,411.686,60386
542.605,410.244,60471
542.563,408.801,60462
542.52,407.358,60571
542.478,405.915,60503
542.436,404.471,60461
542.393,403.028,60405
542.351,401.584,60408
542.308,400.139,60421
542.266,398.695,60483
542.223,397.25,60408
542.181,395.806,60361
542.138,394.361,60457
542.096,392.915,60406
542.053,391.47,60439
542.011,390.024,60395
541.968,388.578,60334
541.926,387.132,60503
541.883,385.685,60435
541.841,384.239,60414
541.798,382.792,60524
541.756,381.345,60465
541.713,379.897,60479
541.671,378.45,60540
541.628,377.002,60544
541.586,375.554,60555
541.544,374.106,60563
541.501,372.657,60544
541.459,371.209,60504
541.416,369.76,60558
541.374,368.31,60507
541.331,366.861,60525
541.289,365.411,60456
541.246,363.962,60487
541.204,362.512,60537
541.161,361.061,60648
541.119,359.611,60583
541.076,358.16,60677
541.034,356.709,60636
540.991,355.258,60621
540.949,353.806,60856
540.906,352.355,60817
540.864,350.903,60760
540.821,349.451,60794
540.779,347.998,60899
540.736,346.546,60961
540.694,345.093,60889
540.652,343.64,60812
540.609,342.187,60898
540.567,340.733,60820
540.524,339.28,60809
540.482,337.826,60872
540.439,336.371,60865
540.397,334.917,60827
540.354,333.462,60800
540.312,332.008,60945
540.269,330.552,61165
540.227,329.097,61251
540.184,327.642,61125
540.142,326.186,61071
540.099,324.73,60941
540.057,323.274,60896
540.014,321.817,60888
539.972,320.36,60860
539.929,318.903,60875
539.887,317.446,60789
539.844,315.989,60671
539.802,314.531,60720
539.76,313.074,60664
539.717,311.615,60704
539.675,310.157,60753
539.632,308.699,60736
539.59,307.24,60812
539.547,305.781,60773
539.505,304.322,60790
539.462,302.862,60804
539.42,301.403,60790
539.377,299.943,60772
539.335,298.483,60637
539.292,297.022,60618
539.25,295.562,60386
539.207,294.101,60297
539.165,292.64,60202
539.122,291.178,60149
539.08,289.717,60104
539.037,288.255,60089
538.995,286.793,59985
538.952,285.331,60036
538.91,283.869,59949
538.868,282.406,60030
538.825,280.943,60002
538.783,279.48,59977
538.74,278.016,60005
538.698,276.553,60070
538.655,275.089,60012
538.613,273.625,59976
538.57,272.161,59958
538.528,270.696,59959
538.485,269.231,60041
538.443,267.766,59967
538.4,266.301,59947
538.358,264.836,60023
538.315,263.37,60028
538.273,261.904,60026
538.23,260.438,59941
538.188,258.972,60026
538.145,257.505,60050
538.103,256.038,59978
538.06,254.571,59995
538.018,253.104,59956
537.976,251.637,59996
537.933,250.169,60035
552.12,727.839,59868
552.078,726.446,60242
552.035,725.052,60242
551.993,723.658,60144
551.95,722.264,60191
551.908,720.869,60144
551.865,719.475,60172
551.823,718.08,60037
551.78,716.685,60084
551.738,715.29,60187
551.695,713.894,60153
551.653,712.499,60110
551.61,711.103,60035
551.568,709.707,60052
551.525,708.31,60102
551.483,706.914,60146
551.44,705.517,60101
551.398,704.12,60097
551.355,702.723,60174
551.313,701.326,60181
551.271,699.928,60107
551.228,698.53,60083
551.186,697.132,60070
551.143,695.734,60164
551.101,694.336,60143
551.058,692.937,60118
551.016,691.538,60157
550.973,690.139,60110
550.931,688.74,60149
550.888,687.34,60174
550.846,685.94,60109
550.803,684.54,60141
550.761,683.14,60121
550.718,681.74,60128
550.676,680.339,60046
550.633,678.938,60107
550.591,677.537,61841
550.548,676.136,60190
550.506,674.735,60207
550.463,673.333,60081
550.421,671.931,60141
550.379,670.529,60188
550.336,669.127,60175
550.294,667.724,60226
550.251,666.321,60141
550.209,664.918,60190
550.166,663.515,60197
550.124,662.112,60150
550.081,660.708,60173
550.039,659.304,60287
549.996,657.9,60205
549.954,656.496,60345
549.911,655.091,60274
549.869,653.686,60259
549.826,652.282,60279
549.784,650.876,60183
549.741,649.471,60328
549.699,648.065,60351
549.656,646.66,60370
549.614,645.254,60206
549.571,643.847,60210
549.529,642.441,60262
549.487,641.034,60248
549.444,639.627,60212
549.402,638.22,60267
549.359,636.813,60247
549.317,635.405,60208
549.274,633.997,60296
549.232,632.589,60299
549.189,631.181,60334
549.147,629.773,60323
549.104,628.364,60285
549.062,626.955,60275
549.019,625.546,60305
548.977,624.137,60365
548.934,622.727,60323
548.892,621.318,60312
548.849,619.908,60326
548.807,618.498,60351
548.764,617.087,60399
548.722,615.677,60328
548.679,614.266,60520
548.637,612.855,60320
548.595,611.444,60353
548.552,610.032,60377
548.51,608.62,60356
548.467,607.208,60399
548.425,605.796,60368
548.382,604.384,60395
548.34,602.971,60413
548.297,601.559,60411
548.255,600.146,60396
548.212,598.732,60425
548.17,597.319,60488
548.127,595.905,60379
548.085,594.491,60362
548.042,593.077,60396
548,591.663,60328
547.957,590.248,60275
547.915,588.834,60300
547.872,587.419,60265
547.83,586.003,60203
547.787,584.588,60281
547.745,583.172,60333
547.703,581.756,60169
547.66,580.34,60150
547.618,578.924,60203
547.575,577.508,60205
547.533,576.091,60221
547.49,574.674,60234
547.448,573.257,60194
547.405,571.839,60256
547.363,570.422,60168
547.32,569.004,60176
547.278,567.586,60270
547.235,566.168,60219
547.193,564.749,60231
547.15,563.33,60221
547.108,561.911,60184
547.065,560.492,60234
547.023,559.073,60251
546.98,557.653,60175
546.938,556.233,60198
546.895,554.813,60185
546.853,553.393,60313
546.811,551.973,60298
546.768,550.552,60308
546.726,549.131,60297
546.683,547.71,60239
546.641,546.288,60410
546.598,544.867,60224
546.556,543.445,60426
546.513,542.023,60339
546.471,540.601,60482
546.428,539.178,60458
546.386,537.756,60531
546.343,536.333,60592
546.301,534.91,60640
546.258,533.486,60650
546.216,532.063,60819
546.173,530.639,60918
546.131,529.215,60987
546.088,527.791,61214
546.046,526.366,61626
546.003,524.941,62104
545.961,523.517,62833
545.919,522.091,64657
545.876,520.666,67918
545.834,519.24,78217
545.791,517.815,101687
545.749,516.389,118395
545.706,514.962,111483
545.664,513.536,91310
545.621,512.109,77136
545.579,510.682,68624
545.536,509.255,64830
545.494,507.828,62964
545.451,506.4,62159
545.409,504.973,61702
545.366,503.545,61448
545.324,502.116,61112
545.281,500.688,60925
545.239,499.259,60859
545.196,497.83,60825
545.154,496.401,60661
545.111,494.972,60586
545.069,493.542,60561
545.027,492.112,60544
544.984,490.682,60522
544.942,489.252,60544
544.899,487.822,60374
544.857,486.391,60523
544.814,484.96,60366
544.772,483.529,60370
544.729,482.098,60355
544.687,480.666,60338
544.644,479.234,60339
544.602,477.802,60323
544.559,476.37,60226
544.517,474.937,60246
544.474,473.505,60242
544.432,472.072,60259
544.389,470.639,60208
544.347,469.205,60208
544.304,467.772,60168
544.262,466.338,60232
544.22,464.904,60178
544.177,463.47,60156
544.135,462.035,60196
544.092,460.6,60192
544.05,459.165,60222
544.007,457.73,60225
543.965,456.295,60284
543.922,454.859,60260
543.88,453.423,60245
543.837,451.987,60336
543.795,450.551,60364
543.752,449.115,60235
543.71,447.678,60335
543.667,446.241,60355
543.625,444.804,60458
543.582,443.366,60424
543.54,441.929,60431
543.497,440.491,60388
543.455,439.053,60502
543.412,437.614,60467
543.37,436.176,60358
543.328,434.737,60353
543.285,433.298,60366
543.243,431.859,60318
543.2,430.42,60359
543.158,428.98,60325
543.115,427.54,60361
543.073,426.1,60370
543.03,424.66,60352
542.988,423.219,60307
542.945,421.778,60382
542.903,420.337,60342
542.86,418.896,60444
542.818,417.455,60355
542.775,416.013,60460
542.733,414.571,60433
542.69,413.129,60409
542.648,411.686,60484
542.605,410.244,60423
542.563,408.801,60497
542.52,407.358,60494
542.478,405.915,60546
542.436,404.471,60511
542.393,403.028,60451
542.351,401.584,60491
542.308,400.139,60589
542.266,398.695,60341
542.223,397.25,60421
542.181,395.806,60442
542.138,394.361,60299
542.096,392.915,60381
542.053,391.47,60342
542.011,390.024,60473
541.968,388.578,60395
541.926,387.132,60397
541.883,385.685,60501
541.841,384.239,60456
541.798,382.792,60532
541.756,381.345,60425
541.713,379.897,60425
541.671,378.45,60384
541.628,377.002,60499
541.586,375.554,60501
541.544,374.106,60381
541.501,372.657,60546
541.459,371.209,60482
541.416,369.76,60480
541.374,368.31,60595
541.331,366.861,60622
541.289,365.411,60482
541.246,363.962,60536
541.204,362.512,60639
541.161,361.061,60493
541.119,359.611,60624
541.076,358.16,60580
541.034,356.709,60596
540.991,355.258,60647
540.949,353.806,60813
540.906,352.355,60867
540.864,350.903,60740
540.821,349.451,60792
540.779,347.998,60920
540.736,346.546,61014
540.694,345.093,60943
540.652,343.64,60878
540.609,342.187,60868
540.567,340.733,60850
540.524,339.28,60846
540.482,337.826,60855
540.439,336.371,60957
540.397,334.917,60964
540.354,333.462,60803
540.312,332.008,60996
540.269,330.552,61073
540.227,329.097,61099
540.184,327.642,61096
540.142,326.186,60949
540.099,324.73,61033
540.057,323.274,60899
540.014,321.817,60867
539.972,320.36,60879
539.929,318.903,60755
539.887,317.446,60743
539.844,315.989,60731
539.802,314.531,60684
539.76,313.074,60633
539.717,311.615,60850
539.675,310.157,60708
539.632,308.699,60763
539.59,307.24,60662
539.547,305.781,60827
539.505,304.322,60801
539.462,302.862,60906
539.42,301.403,60819
539.377,299.943,60816
539.335,298.483,60626
539.292,297.022,60594
539.25,295.562,60434
539.207,294.101,60360
539.165,292.64,60314
539.122,291.178,60260
539.08,289.717,60076
539.037,288.255,60140
538.995,286.793,60130
538.952,285.331,60044
538.91,283.869,59925
538.868,282.406,60038
538.825,280.943,59988
538.783,279.48,60063
538.74,278.016,60012
538.698,276.553,59972
538.655,275.089,60041
538.613,273.625,60017
538.57,272.161,59996
538.528,270.696,60035
538.485,269.231,60005
538.443,267.766,59934
538.4,266.301,59951
538.358,264.836,60008
538.315,263.37,60003
538.273,261.904,60036
538.23,260.438,59990
538.188,258.972,60083
538.145,257.505,60025
538.103,256.038,60064
538.06,254.571,60052
538.018,253.104,60028
537.976,251.637,60002
537.933,250.169,59995
552.12,727.839,59922
552.078,726.446,60151
552.035,725.052,60222
551.993,723.658,60130
551.95,722.264,60186
551.908,720.869,60179
551.865,719.475,60139
551.823,718.08,60186
551.78,716.685,60112
551.738,715.29,60180
551.695,713.894,60207
551.653,712.499,60178
551.61,711.103,60126
551.568,709.707,60128
551.525,708.31,60121
551.483,706.914,60149
551.44,705.517,60146
551.398,704.12,60185
551.355,702.723,60165
551.313,701.326,60100
551.271,699.928,60088
551.228,698.53,60140
551.186,697.132,60148
551.143,695.734,60103
551.101,694.336,60078
551.058,692.937,60183
551.016,691.538,60063
550.973,690.139,60085
550.931,688.74,60197
550.888,687.34,60090
550.846,685.94,60183
550.803,684.54,60087
550.761,683.14,60021
550.718,681.74,60136
550.676,680.339,60051
550.633,678.938,60165
550.591,677.537,60180
550.548,676.136,60128
550.506,674.735,60203
550.463,673.333,60174
550.421,671.931,60234
550.379,670.529,60158
550.336,669.127,60178
550.294,667.724,60216
550.251,666.321,60237
550.209,664.918,60147
550.166,663.515,60247
550.124,662.112,60160
550.081,660.708,60154
550.039,659.304,60229
549.996,657.9,60253
549.954,656.496,60212
549.911,655.091,60167
549.869,653.686,60207
549.826,652.282,60321
549.784,650.876,60274
549.741,649.471,60353
549.699,648.065,60244
549.656,646.66,60257
549.614,645.254,60325
549.571,643.847,60322
549.529,642.441,60277
549.487,641.034,60266
549.444,639.627,60151
549.402,638.22,60191
549.359,636.813,60322
549.317,635.405,60185
549.274,633.997,60248
549.232,632.589,60298
549.189,631.181,60265
549.147,629.773,60326
549.104,628.364,60323
549.062,626.955,60279
549.019,625.546,60283
548.977,624.137,60284
548.934,622.727,60322
548.892,621.318,60383
548.849,619.908,60262
548.807,618.498,60383
548.764,617.087,60299
548.722,615.677,60435
548.679,614.266,60307
548.637,612.855,60467
548.595,611.444,60440
548.552,610.032,60405
548.51,608.62,60414
548.467,607.208,60283
548.425,605.796,60457
548.382,604.384,60424
548.34,602.971,60367
548.297,601.559,60447
548.255,600.146,60309
548.212,598.732,60276
548.17,597.319,60292
548.127,595.905,60243
548.085,594.491,60345
548.042,593.077,60275
548,591.663,60274
547.957,590.248,60342
547.915,588.834,60238
547.872,587.419,60274
547.83,586.003,60232
547.787,584.588,60258
547.745,583.172,60266
547.703,581.756,60228
547.66,580.34,60196
547.618,578.924,60280
547.575,577.508,60269
547.533,576.091,60313
547.49,574.674,60275
547.448,573.257,60229
547.405,571.839,60214
547.363,570.422,60260
547.32,569.004,60179
547.278,567.586,60202
547.235,566.168,60242
547.193,564.749,60182
547.15,563.33,60110
547.108,561.911,60189
547.065,560.492,60228
547.023,559.073,60134
546.98,557.653,60252
546.938,556.233,60247
546.895,554.813,60232
546.853,553.393,60262
546.811,551.973,60239
546.768,550.552,60225
546.726,549.131,60281
546.683,547.71,60238
546.641,546.288,60299
546.598,544.867,60320
546.556,543.445,60420
546.513,542.023,60353
546.471,540.601,60307
546.428,539.178,60428
546.386,537.756,60364
546.343,536.333,60507
546.301,534.91,60593
546.258,533.486,60630
546.216,532.063,60776
546.173,530.639,60923
546.131,529.215,61108
546.088,527.791,61287
546.046,526.366,61640
546.003,524.941,62069
545.961,523.517,62873
545.919,522.091,64456
545.876,520.666,67804
545.834,519.24,78177
545.791,517.815,101160
545.749,516.389,118023
545.706,514.962,111329
545.664,513.536,91420
545.621,512.109,76986
545.579,510.682,69089
545.536,509.255,64857
545.494,507.828,63020
545.451,506.4,62047
545.409,504.973,61696
545.366,503.545,61344
545.324,502.116,61121
545.281,500.688,60985
545.239,499.259,60874
545.196,497.83,60617
545.154,496.401,60785
545.111,494.972,60602
545.069,493.542,60506
545.027,492.112,60528
544.984,490.682,60548
544.942,489.252,60471
544.899,487.822,60398
544.857,486.391,60380
544.814,484.96,60390
544.772,483.529,60357
544.729,482.098,60353
544.687,480.666,60309
544.644,479.234,60238
544.602,477.802,60246
544.559,476.37,60259
544.517,474.937,60267
544.474,473.505,60118
544.432,472.072,60243
544.389,470.639,60150
544.347,469.205,60202
544.304,467.772,60182
544.262,466.338,60167
544.22,464.904,60166
544.177,463.47,60166
544.135,462.035,60255
544.092,460.6,60211
544.05,459.165,60151
544.007,457.73,60178
543.965,456.295,60253
543.922,454.859,60306
543.88,453.423,60308
543.837,451.987,60248
543.795,450.551,60390
543.752,449.115,60390
543.71,447.678,60286
543.667,446.241,60322
543.625,444.804,60432
543.582,443.366,60372
543.54,441.929,60441
543.497,440.491,60408
543.455,439.053,60424
543.412,437.614,60439
543.37,436.176,60411
543.328,434.737,60439
543.285,433.298,60432
543.243,431.859,60290
543.2,430.42,60369
543.158,428.98,60458
543.115,427.54,60377
543.073,426.1,60541
543.03,424.66,60414
542.988,423.219,60401
542.945,421.778,60328
542.903,420.337,60356
542.86,418.896,60342
542.818,417.455,60411
542.775,416.013,60430
542.733,414.571,60391
542.69,413.129,60400
542.648,411.686,60363
542.605,410.244,60422
542.563,408.801,60480
542.52,407.358,60411
542.478,405.915,60468
542.436,404.471,60555
542.393,403.028,60440
542.351,401.584,60491
542.308,400.139,60358
542.266,398.695,60398
542.223,397.25,60359
542.181,395.806,60410
542.138,394.361,60356
542.096,392.915,60378
542.053,391.47,60447
542.011,390.024,60436
541.968,388.578,60401
541.926,387.132,60459
541.883,385.685,60476
541.841,384.239,60555
541.798,382.792,60412
541.756,381.345,60508
541.713,379.897,60414
541.671,378.45,60432
541.628,377.002,60573
541.586,375.554,60462
541.544,374.106,60350
541.501,372.657,60544
541.459,371.209,60507
541.416,369.76,60415
541.374,368.31,60536
541.331,366.861,60462
541.289,365.411,60497
541.246,363.962,60560
541.204,362.512,60625
541.161,361.061,60582
541.119,359.611,60580
541.076,358.16,60616
541.034,356.709,60580
540.991,355.258,60585
540.949,353.806,60652
540.906,352.355,60929
540.864,350.903,60812
540.821,349.451,60880
540.779,347.998,60889
540.736,346.546,60930
540.694,345.093,61021
540.652,343.64,60853
540.609,342.187,61004
540.567,340.733,60875
540.524,339.28,60807
540.482,337.826,60930
540.439,336.371,60813
540.397,334.917,60845
540.354,333.462,60935
540.312,332.008,61054
540.269,330.552,61060
540.227,329.097,61140
540.184,327.642,61144
540.142,326.186,60985
540.099,324.73,60975
540.057,323.274,60805
540.014,321.817,60892
539.972,320.36,60688
539.929,318.903,60792
539.887,317.446,60838
539.844,315.989,60634
539.802,314.531,60682
539.76,313.074,60718
539.717,311.615,60690
539.675,310.157,60808
539.632,308.699,60707
539.59,307.24,60798
539.547,305.781,60714
539.505,304.322,60711
539.462,302.862,60910
539.42,301.403,60660
539.377,299.943,60747
539.335,298.483,60594
539.292,297.022,60497
539.25,295.562,60405
539.207,294.101,60349
539.165,292.64,60314
539.122,291.178,60190
539.08,289.717,60119
539.037,288.255,60108
538.995,286.793,60028
538.952,285.331,60043
538.91,283.869,60013
538.868,282.406,60077
538.825,280.943,59985
538.783,279.48,60010
538.74,278.016,60040
538.698,276.553,60029
538.655,275.089,59919
538.613,273.625,59998
538.57,272.161,60023
538.528,270.696,60037
538.485,269.231,59903
538.443,267.766,59940
538.4,266.301,60003
538.358,264.836,59997
538.315,263.37,59970
538.273,261.904,59930
538.23,260.438,59947
538.188,258.972,59999
538.145,257.505,59952
538.103,256.038,59950
538.06,254.571,60012
538.018,253.104,59982
537.976,251.637,59981
537.933,250.169,60002
552.12,727.839,59897
552.078,726.446,60225
552.035,725.052,60073
551.993,723.658,60059
551.95,722.264,60140
551.908,720.869,60150
551.865,719.475,60117
551.823,718.08,60313
551.78,716.685,60151
551.738,715.29,60135
551.695,713.894,60115
551.653,712.499,60122
551.61,711.103,60132
551.568,709.707,60123
551.525,708.31,60243
551.483,706.914,60134
551.44,705.517,60105
551.398,704.12,60110
551.355,702.723,60217
551.313,701.326,60097
551.271,699.928,60148
551.228,698.53,60154
551.186,697.132,60160
551.143,695.734,60135
551.101,694.336,60029
551.058,692.937,60175
551.016,691.538,60127
550.973,690.139,60121
550.931,688.74,60143
550.888,687.34,60128
550.846,685.94,60211
550.803,684.54,60158
550.761,683.14,60090
550.718,681.74,60172
550.676,680.339,60167
550.633,678.938,60163
550.591,677.537,60100
550.548,676.136,60091
550.506,674.735,60141
550.463,673.333,60131
550.421,671.931,60184
550.379,670.529,60119
550.336,669.127,60174
550.294,667.724,60099
550.251,666.321,60093
550.209,664.918,60210
550.166,663.515,60147
550.124,662.112,60220
550.081,660.708,60241
550.039,659.304,60223
549.996,657.9,60218
549.954,656.496,60178
549.911,655.091,60170
549.869,653.686,60312
549.826,652.282,60274
549.784,650.876,60232
549.741,649.471,60254
549.699,648.065,60216
549.656,646.66,60279
549.614,645.254,60342
549.571,643.847,60319
549.529,642.441,60289
549.487,641.034,60281
549.444,639.627,60313
549.402,638.22,60240
549.359,636.813,60185
549.317,635.405,60258
549.274,633.997,60269
549.232,632.589,60280
549.189,631.181,60207
549.147,629.773,60198
549.104,628.364,60331
549.062,626.955,60287
549.019,625.546,60367
548.977,624.137,60270
548.934,622.727,60435
548.892,621.318,60327
548.849,619.908,60302
548.807,618.498,60364
548.764,617.087,60430
548.722,615.677,60443
548.679,614.266,60396
548.637,612.855,60511
548.595,611.444,60339
548.552,610.032,60410
548.51,608.62,60361
548.467,607.208,60387
548.425,605.796,60321
548.382,604.384,60503
548.34,602.971,60405
548.297,601.559,60458
548.255,600.146,60380
548.212,598.732,60415
548.17,597.319,60328
548.127,595.905,60319
548.085,594.491,60357
548.042,593.077,60252
548,591.663,60387
547.957,590.248,60234
547.915,588.834,60226
547.872,587.419,60333
547.83,586.003,60286
547.787,584.588,60287
547.745,583.172,60277
547.703,581.756,60299
547.66,580.34,60288
547.618,578.924,60242
547.575,577.508,60233
547.533,576.091,60302
547.49,574.674,60230
547.448,573.257,60258
547.405,571.839,60237
547.363,570.422,60177
547.32,569.004,60129
547.278,567.586,60188
547.235,566.168,60191
547.193,564.749,60197
547.15,563.33,60196
547.108,561.911,60206
547.065,560.492,60171
547.023,559.073,60352
546.98,557.653,60234
546.938,556.233,60175
546.895,554.813,60115
546.853,553.393,60236
546.811,551.973,60292
546.768,550.552,60173
546.726,549.131,60283
546.683,547.71,60338
546.641,546.288,60304
546.598,544.867,60332
546.556,543.445,60462
546.513,542.023,60464
546.471,540.601,60446
546.428,539.178,60483
546.386,537.756,60420
546.343,536.333,60518
546.301,534.91,60657
546.258,533.486,60648
546.216,532.063,60790
546.173,530.639,60975
546.131,529.215,61102
546.088,527.791,61244
546.046,526.366,61627
546.003,524.941,62106
545.961,523.517,62849
545.919,522.091,64516
545.876,520.666,68133
545.834,519.24,78104
545.791,517.815,101064
545.749,516.389,118788
545.706,514.962,111543
545.664,513.536,90971
545.621,512.109,76772
545.579,510.682,68819
545.536,509.255,64745
545.494,507.828,62925
545.451,506.4,62156
545.409,504.973,61605
545.366,503.545,61307
545.324,502.116,61015
545.281,500.688,60890
545.239,499.259,60802
545.196,497.83,60716
545.154,496.401,60686
545.111,494.972,60678
545.069,493.542,60560
545.027,492.112,60552
544.984,490.682,60582
544.942,489.252,60438
544.899,487.822,60471
544.857,486.391,60371
544.814,484.96,60469
544.772,483.529,60390
544.729,482.098,60318
544.687,480.666,60305
544.644,479.234,60279
544.602,477.802,60293
544.559,476.37,60210
544.517,474.937,60269
544.474,473.505,60197
544.432,472.072,60262
544.389,470.639,60283
544.347,469.205,60236
544.304,467.772,60164
544.262,466.338,60296
544.22,464.904,60259
544.177,463.47,60239
544.135,462.035,60227
544.092,460.6,60073
544.05,459.165,60151
544.007,457.73,60354
543.965,456.295,60300
543.922,454.859,60303
543.88,453.423,60205
543.837,451.987,60282
543.795,450.551,60293
543.752,449.115,60394
543.71,447.678,60348
543.667,446.241,60326
543.625,444.804,60329
543.582,443.366,60444
543.54,441.929,60420
543.497,440.491,60495
543.455,439.053,60393
543.412,437.614,60432
543.37,436.176,60400
543.328,434.737,60407
543.285,433.298,60368
543.243,431.859,60418
543.2,430.42,60466
543.158,428.98,60424
543.115,427.54,60390
543.073,426.1,60376
543.03,424.66,60341
542.988,423.219,60311
542.945,421.778,60463
542.903,420.337,60394
542.86,418.896,60390
542.818,417.455,60353
542.775,416.013,60395
542.733,414.571,60356
542.69,413.129,60419
542.648,411.686,60356
542.605,410.244,60521
542.563,408.801,60330
542.52,407.358,60537
542.478,405.915,60588
542.436,404.471,60575
542.393,403.028,60553
542.351,401.584,60515
542.308,400.139,60427
542.266,398.695,60452
542.223,397.25,60417
542.181,395.806,60432
542.138,394.361,60409
542.096,392.915,60503
542.053,391.47,60522
542.011,390.024,60471
541.968,388.578,60427
541.926,387.132,60371
541.883,385.685,60463
541.841,384.239,60538
541.798,382.792,60497
541.756,381.345,60411
541.713,379.897,60483
541.671,378.45,60522
541.628,377.002,60556
541.586,375.554,60444
541.544,374.106,60455
541.501,372.657,60519
541.459,371.209,60541
541.416,369.76,60504
541.374,368.31,60525
541.331,366.861,60428
541.289,365.411,60512
541.246,363.962,60573
541.204,362.512,60584
541.161,361.061,60538
541.119,359.611,60601
541.076,358.16,60548
541.034,356.709,60641
540.991,355.258,60785
540.949,353.806,60683
540.906,352.355,60810
540.864,350.903,60785
540.821,349.451,60858
540.779,347.998,60910
540.736,346.546,60972
540.694,345.093,61019
540.652,343.64,60867
540.609,342.187,60764
540.567,340.733,60930
540.524,339.28,60819
540.482,337.826,60793
540.439,336.371,60766
540.397,334.917,61052
540.354,333.462,61020
540.312,332.008,61147
540.269,330.552,61105
540.227,329.097,61071
540.184,327.642,61119
540.142,326.186,61058
540.099,324.73,60931
540.057,323.274,60935
540.014,321.817,60884
539.972,320.36,60869
539.929,318.903,60789
539.887,317.446,60704
539.844,315.989,60686
539.802,314.531,60625
539.76,313.074,60675
539.717,311.615,60656
539.675,310.157,60609
539.632,308.699,60737
539.59,307.24,60716
539.547,305.781,60897
539.505,304.322,60853
539.462,302.862,60834
539.42,301.403,60818
539.377,299.943,60681
539.335,298.483,60614
539.292,297.022,60541
539.25,295.562,60400
539.207,294.101,60284
539.165,292.64,60276
539.122,291.178,60190
539.08,289.717,60173
539.037,288.255,60052
538.995,286.793,60094
538.952,285.331,60031
538.91,283.869,60034
538.868,282.406,60099
538.825,280.943,60058
538.783,279.48,60037
538.74,278.016,59977
538.698,276.553,60000
538.655,275.089,59992
538.613,273.625,60040
538.57,272.161,59976
538.528,270.696,60006
538.485,269.231,59989
538.443,267.766,60000
538.4,266.301,60004
538.358,264.836,60028
538.315,263.37,59992
538.273,261.904,59977
538.23,260.438,59966
538.188,258.972,59988
538.145,257.505,60047
538.103,256.038,60064
538.06,254.571,60016
538.018,253.104,60076
537.976,251.637,59993
537.933,250.169,60085
537.901,249.068,59965