File: tomke/20240809/raw_data/TiO2_flash_50mA_545.txt
Wavelength(nm), Raman shift(cm^-1), Intensity(counts)
552.12,-3207.54,64443
552.067,-3209.28,64850
552.014,-3211.03,64780
551.961,-3212.77,64672
551.908,-3214.51,64616
551.855,-3216.25,64864
551.801,-3218,64926
551.748,-3219.74,64830
551.695,-3221.49,64474
551.642,-3223.23,64810
551.589,-3224.98,64737
551.536,-3226.72,64819
551.483,-3228.47,64703
551.43,-3230.21,64810
551.377,-3231.96,64835
551.324,-3233.7,64817
551.271,-3235.45,64656
551.217,-3237.2,64795
551.164,-3238.95,64762
551.111,-3240.69,64667
551.058,-3242.44,64626
551.005,-3244.19,64661
550.952,-3245.94,64806
550.899,-3247.69,64658
550.846,-3249.44,64667
550.793,-3251.19,64831
550.74,-3252.94,64510
550.686,-3254.69,64683
550.633,-3256.44,64793
550.58,-3258.19,64651
550.527,-3259.94,64764
550.474,-3261.7,64688
550.421,-3263.45,64682
550.368,-3265.2,64670
550.315,-3266.95,64674
550.262,-3268.71,64580
550.209,-3270.46,64590
550.156,-3272.22,64790
550.102,-3273.97,64713
550.049,-3275.73,64644
549.996,-3277.48,64703
549.943,-3279.24,64569
549.89,-3280.99,64645
549.837,-3282.75,64767
549.784,-3284.5,64654
549.731,-3286.26,64744
549.678,-3288.02,64761
549.625,-3289.78,64606
549.571,-3291.53,64538
549.518,-3293.29,64540
549.465,-3295.05,64868
549.412,-3296.81,64588
549.359,-3298.57,64613
549.306,-3300.33,64496
549.253,-3302.09,64642
549.2,-3303.85,64605
549.147,-3305.61,64586
549.094,-3307.37,64759
549.041,-3309.13,64687
548.987,-3310.89,64619
548.934,-3312.65,64543
548.881,-3314.41,64475
548.828,-3316.18,64622
548.775,-3317.94,64644
548.722,-3319.7,64511
548.669,-3321.47,64773
548.616,-3323.23,64500
548.563,-3325,64537
548.51,-3326.76,64614
548.456,-3328.52,64528
548.403,-3330.29,64628
548.35,-3332.06,64582
548.297,-3333.82,64693
548.244,-3335.59,64722
548.191,-3337.35,64503
548.138,-3339.12,64560
548.085,-3340.89,64594
548.032,-3342.66,64681
547.979,-3344.42,64553
547.926,-3346.19,64588
547.872,-3347.96,64412
547.819,-3349.73,64465
547.766,-3351.5,64400
547.713,-3353.27,64455
547.66,-3355.04,64307
547.607,-3356.81,64297
547.554,-3358.58,64427
547.501,-3360.35,64196
547.448,-3362.12,64379
547.395,-3363.9,64241
547.341,-3365.67,64349
547.288,-3367.44,64176
547.235,-3369.21,64280
547.182,-3370.99,64209
547.129,-3372.76,64412
547.076,-3374.53,64301
547.023,-3376.31,64126
546.97,-3378.08,64183
546.917,-3379.86,64174
546.864,-3381.63,64095
546.811,-3383.41,63982
546.757,-3385.18,64109
546.704,-3386.96,64048
546.651,-3388.74,64077
546.598,-3390.51,63943
546.545,-3392.29,63918
546.492,-3394.07,64045
546.439,-3395.85,63850
546.386,-3397.62,63970
546.333,-3399.4,63857
546.28,-3401.18,63945
546.226,-3402.96,63888
546.173,-3404.74,63805
546.12,-3406.52,63859
546.067,-3408.3,63855
546.014,-3410.08,63768
545.961,-3411.86,63785
545.908,-3413.65,63787
545.855,-3415.43,64120
545.802,-3417.21,64206
545.749,-3418.99,63931
545.696,-3420.77,63766
545.642,-3422.56,63615
545.589,-3424.34,63667
545.536,-3426.12,63807
545.483,-3427.91,63793
545.43,-3429.69,63680
545.377,-3431.48,63730
545.324,-3433.26,63626
545.271,-3435.05,63572
545.218,-3436.84,63606
545.165,-3438.62,63614
545.111,-3440.41,63671
545.058,-3442.2,63497
545.005,-3443.98,63513
544.952,-3445.77,63540
544.899,-3447.56,63589
544.846,-3449.35,63504
544.793,-3451.14,63561
544.74,-3452.92,63582
544.687,-3454.71,63681
544.634,-3456.5,63647
544.581,-3458.29,63593
544.527,-3460.08,63668
544.474,-3461.88,63475
544.421,-3463.67,63514
544.368,-3465.46,63452
544.315,-3467.25,63545
544.262,-3469.04,63657
544.209,-3470.83,63525
544.156,-3472.63,63680
544.103,-3474.42,63437
544.05,-3476.21,63520
543.997,-3478.01,63595
543.943,-3479.8,63474
543.89,-3481.6,63565
543.837,-3483.39,63501
543.784,-3485.19,63604
543.731,-3486.98,63586
543.678,-3488.78,63446
543.625,-3490.58,63589
543.572,-3492.37,63527
543.519,-3494.17,63404
543.466,-3495.97,63461
543.412,-3497.77,63490
543.359,-3499.56,63430
543.306,-3501.36,63271
543.253,-3503.16,63348
543.2,-3504.96,63405
543.147,-3506.76,63392
543.094,-3508.56,63511
543.041,-3510.36,63489
542.988,-3512.16,63361
542.935,-3513.96,63531
542.882,-3515.76,63376
542.828,-3517.57,63357
542.775,-3519.37,63399
542.722,-3521.17,63327
542.669,-3522.97,63448
542.616,-3524.78,63311
542.563,-3526.58,63229
542.51,-3528.38,63224
542.457,-3530.19,63320
542.404,-3531.99,63306
542.351,-3533.8,63285
542.297,-3535.6,63301
542.244,-3537.41,63413
542.191,-3539.21,63251
542.138,-3541.02,63291
542.085,-3542.83,63170
542.032,-3544.63,63141
541.979,-3546.44,63151
541.926,-3548.25,63154
541.873,-3550.06,63224
541.82,-3551.86,63184
541.767,-3553.67,63309
541.713,-3555.48,63079
541.66,-3557.29,63296
541.607,-3559.1,63170
541.554,-3560.91,63138
541.501,-3562.72,63107
541.448,-3564.53,63079
541.395,-3566.35,63093
541.342,-3568.16,63151
541.289,-3569.97,63222
541.236,-3571.78,63023
541.182,-3573.59,63003
541.129,-3575.41,63121
541.076,-3577.22,63067
541.023,-3579.03,63021
540.97,-3580.85,62854
540.917,-3582.66,63049
540.864,-3584.48,63033
540.811,-3586.29,63103
540.758,-3588.11,63006
540.705,-3589.92,62915
540.652,-3591.74,63108
540.598,-3593.56,62960
540.545,-3595.37,63025
540.492,-3597.19,62912
540.439,-3599.01,62818
540.386,-3600.83,62809
540.333,-3602.65,62863
540.28,-3604.46,62945
540.227,-3606.28,62985
540.174,-3608.1,62945
540.121,-3609.92,62738
540.067,-3611.74,62727
540.014,-3613.56,62882
539.961,-3615.38,62753
539.908,-3617.21,62891
539.855,-3619.03,62877
539.802,-3620.85,62654
539.749,-3622.67,62702
539.696,-3624.49,62964
539.643,-3626.32,62748
539.59,-3628.14,62697
539.537,-3629.96,62707
539.483,-3631.79,62731
539.43,-3633.61,62722
539.377,-3635.44,62656
539.324,-3637.26,62657
539.271,-3639.09,62622
539.218,-3640.91,62766
539.165,-3642.74,62578
539.112,-3644.57,62620
539.059,-3646.39,62670
539.006,-3648.22,62506
538.952,-3650.05,62440
538.899,-3651.88,62505
538.846,-3653.71,62500
538.793,-3655.53,62411
538.74,-3657.36,62695
538.687,-3659.19,62469
538.634,-3661.02,62405
538.581,-3662.85,62490
538.528,-3664.68,62598
538.475,-3666.51,62539
538.422,-3668.35,62452
538.368,-3670.18,62471
538.315,-3672.01,62334
538.262,-3673.84,62537
538.209,-3675.68,62369
538.156,-3677.51,62301
538.103,-3679.34,62316
538.05,-3681.18,62371
537.997,-3683.01,62338
537.944,-3684.84,62259
552.12,-3207.54,64829
552.067,-3209.28,65035
552.014,-3211.03,64967
551.961,-3212.77,64820
551.908,-3214.51,64795
551.855,-3216.25,64845
551.801,-3218,65063
551.748,-3219.74,64986
551.695,-3221.49,65040
551.642,-3223.23,65029
551.589,-3224.98,64854
551.536,-3226.72,64759
551.483,-3228.47,65106
551.43,-3230.21,65062
551.377,-3231.96,64871
551.324,-3233.7,65026
551.271,-3235.45,64999
551.217,-3237.2,65050
551.164,-3238.95,65110
551.111,-3240.69,65001
551.058,-3242.44,64854
551.005,-3244.19,64877
550.952,-3245.94,64960
550.899,-3247.69,64826
550.846,-3249.44,64963
550.793,-3251.19,64859
550.74,-3252.94,64984
550.686,-3254.69,64793
550.633,-3256.44,64941
550.58,-3258.19,64797
550.527,-3259.94,65004
550.474,-3261.7,64968
550.421,-3263.45,64678
550.368,-3265.2,64783
550.315,-3266.95,64886
550.262,-3268.71,65003
550.209,-3270.46,64956
550.156,-3272.22,64880
550.102,-3273.97,64916
550.049,-3275.73,64735
549.996,-3277.48,64855
549.943,-3279.24,64914
549.89,-3280.99,64764
549.837,-3282.75,64904
549.784,-3284.5,64977
549.731,-3286.26,64727
549.678,-3288.02,64885
549.625,-3289.78,64716
549.571,-3291.53,64951
549.518,-3293.29,64777
549.465,-3295.05,64932
549.412,-3296.81,64784
549.359,-3298.57,64992
549.306,-3300.33,64843
549.253,-3302.09,64613
549.2,-3303.85,64835
549.147,-3305.61,64763
549.094,-3307.37,64771
549.041,-3309.13,64811
548.987,-3310.89,64911
548.934,-3312.65,64636
548.881,-3314.41,64791
548.828,-3316.18,64816
548.775,-3317.94,64718
548.722,-3319.7,64833
548.669,-3321.47,64793
548.616,-3323.23,64845
548.563,-3325,64818
548.51,-3326.76,64832
548.456,-3328.52,64750
548.403,-3330.29,64935
548.35,-3332.06,64932
548.297,-3333.82,64783
548.244,-3335.59,64631
548.191,-3337.35,64653
548.138,-3339.12,64617
548.085,-3340.89,64736
548.032,-3342.66,64742
547.979,-3344.42,64714
547.926,-3346.19,64663
547.872,-3347.96,64660
547.819,-3349.73,64683
547.766,-3351.5,64645
547.713,-3353.27,64668
547.66,-3355.04,64612
547.607,-3356.81,64469
547.554,-3358.58,64452
547.501,-3360.35,64472
547.448,-3362.12,64373
547.395,-3363.9,64584
547.341,-3365.67,64470
547.288,-3367.44,64491
547.235,-3369.21,64577
547.182,-3370.99,64272
547.129,-3372.76,64435
547.076,-3374.53,64059
547.023,-3376.31,64354
546.97,-3378.08,64447
546.917,-3379.86,64334
546.864,-3381.63,64271
546.811,-3383.41,64166
546.757,-3385.18,64153
546.704,-3386.96,64173
546.651,-3388.74,64108
546.598,-3390.51,64141
546.545,-3392.29,64236
546.492,-3394.07,64154
546.439,-3395.85,64255
546.386,-3397.62,64342
546.333,-3399.4,64237
546.28,-3401.18,64038
546.226,-3402.96,63952
546.173,-3404.74,63870
546.12,-3406.52,63880
546.067,-3408.3,63923
546.014,-3410.08,64070
545.961,-3411.86,63972
545.908,-3413.65,63923
545.855,-3415.43,64216
545.802,-3417.21,64414
545.749,-3418.99,64216
545.696,-3420.77,63971
545.642,-3422.56,63862
545.589,-3424.34,64132
545.536,-3426.12,63938
545.483,-3427.91,63835
545.43,-3429.69,63879
545.377,-3431.48,63766
545.324,-3433.26,63983
545.271,-3435.05,63870
545.218,-3436.84,63905
545.165,-3438.62,63884
545.111,-3440.41,63788
545.058,-3442.2,63709
545.005,-3443.98,63818
544.952,-3445.77,63561
544.899,-3447.56,63760
544.846,-3449.35,63711
544.793,-3451.14,63775
544.74,-3452.92,63735
544.687,-3454.71,63696
544.634,-3456.5,63975
544.581,-3458.29,63845
544.527,-3460.08,63740
544.474,-3461.88,63619
544.421,-3463.67,63572
544.368,-3465.46,63674
544.315,-3467.25,63762
544.262,-3469.04,63674
544.209,-3470.83,63585
544.156,-3472.63,63773
544.103,-3474.42,63549
544.05,-3476.21,63621
543.997,-3478.01,63684
543.943,-3479.8,63545
543.89,-3481.6,63683
543.837,-3483.39,63629
543.784,-3485.19,63681
543.731,-3486.98,63578
543.678,-3488.78,63580
543.625,-3490.58,63594
543.572,-3492.37,63574
543.519,-3494.17,63512
543.466,-3495.97,63469
543.412,-3497.77,63464
543.359,-3499.56,63595
543.306,-3501.36,63586
543.253,-3503.16,63470
543.2,-3504.96,63546
543.147,-3506.76,63445
543.094,-3508.56,63589
543.041,-3510.36,63532
542.988,-3512.16,63503
542.935,-3513.96,63453
542.882,-3515.76,63488
542.828,-3517.57,63522
542.775,-3519.37,63520
542.722,-3521.17,63546
542.669,-3522.97,63448
542.616,-3524.78,63440
542.563,-3526.58,63470
542.51,-3528.38,63517
542.457,-3530.19,63454
542.404,-3531.99,63473
542.351,-3533.8,63325
542.297,-3535.6,63481
542.244,-3537.41,63292
542.191,-3539.21,63472
542.138,-3541.02,63297
542.085,-3542.83,63374
542.032,-3544.63,63436
541.979,-3546.44,63287
541.926,-3548.25,63264
541.873,-3550.06,63286
541.82,-3551.86,63240
541.767,-3553.67,63243
541.713,-3555.48,63268
541.66,-3557.29,63379
541.607,-3559.1,63403
541.554,-3560.91,63170
541.501,-3562.72,63247
541.448,-3564.53,63221
541.395,-3566.35,63255
541.342,-3568.16,63091
541.289,-3569.97,63103
541.236,-3571.78,63242
541.182,-3573.59,63175
541.129,-3575.41,63228
541.076,-3577.22,63286
541.023,-3579.03,63359
540.97,-3580.85,63275
540.917,-3582.66,62937
540.864,-3584.48,63104
540.811,-3586.29,63138
540.758,-3588.11,62989
540.705,-3589.92,63280
540.652,-3591.74,62987
540.598,-3593.56,63036
540.545,-3595.37,63089
540.492,-3597.19,63125
540.439,-3599.01,63098
540.386,-3600.83,62952
540.333,-3602.65,62837
540.28,-3604.46,62881
540.227,-3606.28,62952
540.174,-3608.1,62942
540.121,-3609.92,63024
540.067,-3611.74,62897
540.014,-3613.56,62882
539.961,-3615.38,63054
539.908,-3617.21,62678
539.855,-3619.03,62833
539.802,-3620.85,62908
539.749,-3622.67,63081
539.696,-3624.49,62756
539.643,-3626.32,62932
539.59,-3628.14,62836
539.537,-3629.96,62832
539.483,-3631.79,62636
539.43,-3633.61,62797
539.377,-3635.44,62762
539.324,-3637.26,62873
539.271,-3639.09,62822
539.218,-3640.91,62738
539.165,-3642.74,62757
539.112,-3644.57,62668
539.059,-3646.39,62595
539.006,-3648.22,62664
538.952,-3650.05,62622
538.899,-3651.88,62527
538.846,-3653.71,62670
538.793,-3655.53,62598
538.74,-3657.36,62544
538.687,-3659.19,62679
538.634,-3661.02,62449
538.581,-3662.85,62582
538.528,-3664.68,62845
538.475,-3666.51,62491
538.422,-3668.35,62457
538.368,-3670.18,62575
538.315,-3672.01,62605
538.262,-3673.84,62448
538.209,-3675.68,62393
538.156,-3677.51,62378
538.103,-3679.34,62417
538.05,-3681.18,62430
537.997,-3683.01,62425
537.944,-3684.84,62318
552.12,-3207.54,64588
552.067,-3209.28,65177
552.014,-3211.03,64970
551.961,-3212.77,64972
551.908,-3214.51,64986
551.855,-3216.25,64850
551.801,-3218,65042
551.748,-3219.74,65013
551.695,-3221.49,64847
551.642,-3223.23,64961
551.589,-3224.98,64994
551.536,-3226.72,64877
551.483,-3228.47,65155
551.43,-3230.21,65004
551.377,-3231.96,65064
551.324,-3233.7,64978
551.271,-3235.45,64869
551.217,-3237.2,64824
551.164,-3238.95,64937
551.111,-3240.69,64940
551.058,-3242.44,64796
551.005,-3244.19,64824
550.952,-3245.94,64922
550.899,-3247.69,64789
550.846,-3249.44,64929
550.793,-3251.19,64888
550.74,-3252.94,65169
550.686,-3254.69,64891
550.633,-3256.44,64985
550.58,-3258.19,64649
550.527,-3259.94,64788
550.474,-3261.7,64855
550.421,-3263.45,64872
550.368,-3265.2,64862
550.315,-3266.95,64867
550.262,-3268.71,64890
550.209,-3270.46,64856
550.156,-3272.22,64710
550.102,-3273.97,64996
550.049,-3275.73,64956
549.996,-3277.48,64868
549.943,-3279.24,65145
549.89,-3280.99,64954
549.837,-3282.75,64805
549.784,-3284.5,64941
549.731,-3286.26,64987
549.678,-3288.02,64880
549.625,-3289.78,64787
549.571,-3291.53,64787
549.518,-3293.29,64953
549.465,-3295.05,64895
549.412,-3296.81,64944
549.359,-3298.57,64960
549.306,-3300.33,64853
549.253,-3302.09,64689
549.2,-3303.85,64758
549.147,-3305.61,64948
549.094,-3307.37,64726
549.041,-3309.13,64773
548.987,-3310.89,65095
548.934,-3312.65,64926
548.881,-3314.41,64901
548.828,-3316.18,64796
548.775,-3317.94,64904
548.722,-3319.7,64742
548.669,-3321.47,64814
548.616,-3323.23,64894
548.563,-3325,64944
548.51,-3326.76,64863
548.456,-3328.52,64922
548.403,-3330.29,64809
548.35,-3332.06,64910
548.297,-3333.82,64826
548.244,-3335.59,64755
548.191,-3337.35,64773
548.138,-3339.12,64693
548.085,-3340.89,64680
548.032,-3342.66,64738
547.979,-3344.42,64612
547.926,-3346.19,64743
547.872,-3347.96,64955
547.819,-3349.73,64589
547.766,-3351.5,64697
547.713,-3353.27,64536
547.66,-3355.04,64555
547.607,-3356.81,64652
547.554,-3358.58,64522
547.501,-3360.35,64581
547.448,-3362.12,64520
547.395,-3363.9,64472
547.341,-3365.67,64509
547.288,-3367.44,64414
547.235,-3369.21,64570
547.182,-3370.99,64476
547.129,-3372.76,64346
547.076,-3374.53,64278
547.023,-3376.31,64448
546.97,-3378.08,64363
546.917,-3379.86,64333
546.864,-3381.63,64275
546.811,-3383.41,64359
546.757,-3385.18,64267
546.704,-3386.96,64205
546.651,-3388.74,64176
546.598,-3390.51,64329
546.545,-3392.29,64162
546.492,-3394.07,64158
546.439,-3395.85,64263
546.386,-3397.62,64051
546.333,-3399.4,64037
546.28,-3401.18,64048
546.226,-3402.96,64114
546.173,-3404.74,64053
546.12,-3406.52,64013
546.067,-3408.3,64100
546.014,-3410.08,63995
545.961,-3411.86,63933
545.908,-3413.65,63986
545.855,-3415.43,64402
545.802,-3417.21,64500
545.749,-3418.99,64196
545.696,-3420.77,63936
545.642,-3422.56,63987
545.589,-3424.34,63987
545.536,-3426.12,64033
545.483,-3427.91,63756
545.43,-3429.69,63907
545.377,-3431.48,63868
545.324,-3433.26,63791
545.271,-3435.05,64034
545.218,-3436.84,63843
545.165,-3438.62,63946
545.111,-3440.41,63869
545.058,-3442.2,63916
545.005,-3443.98,63747
544.952,-3445.77,63656
544.899,-3447.56,63800
544.846,-3449.35,63671
544.793,-3451.14,63725
544.74,-3452.92,64027
544.687,-3454.71,63665
544.634,-3456.5,63803
544.581,-3458.29,63681
544.527,-3460.08,63624
544.474,-3461.88,63799
544.421,-3463.67,63727
544.368,-3465.46,63806
544.315,-3467.25,63726
544.262,-3469.04,63679
544.209,-3470.83,63667
544.156,-3472.63,63705
544.103,-3474.42,63617
544.05,-3476.21,63712
543.997,-3478.01,63602
543.943,-3479.8,63674
543.89,-3481.6,63712
543.837,-3483.39,63700
543.784,-3485.19,63685
543.731,-3486.98,63538
543.678,-3488.78,63618
543.625,-3490.58,63796
543.572,-3492.37,63582
543.519,-3494.17,63679
543.466,-3495.97,63611
543.412,-3497.77,63770
543.359,-3499.56,63686
543.306,-3501.36,63505
543.253,-3503.16,63528
543.2,-3504.96,63481
543.147,-3506.76,63571
543.094,-3508.56,63547
543.041,-3510.36,63572
542.988,-3512.16,63454
542.935,-3513.96,63549
542.882,-3515.76,63533
542.828,-3517.57,63636
542.775,-3519.37,63565
542.722,-3521.17,63440
542.669,-3522.97,63559
542.616,-3524.78,63459
542.563,-3526.58,63661
542.51,-3528.38,63506
542.457,-3530.19,63570
542.404,-3531.99,63381
542.351,-3533.8,63454
542.297,-3535.6,63471
542.244,-3537.41,63402
542.191,-3539.21,63434
542.138,-3541.02,63622
542.085,-3542.83,63317
542.032,-3544.63,63328
541.979,-3546.44,63313
541.926,-3548.25,63333
541.873,-3550.06,63422
541.82,-3551.86,63304
541.767,-3553.67,63534
541.713,-3555.48,63328
541.66,-3557.29,63306
541.607,-3559.1,63249
541.554,-3560.91,63172
541.501,-3562.72,63316
541.448,-3564.53,63354
541.395,-3566.35,63312
541.342,-3568.16,63282
541.289,-3569.97,63085
541.236,-3571.78,63269
541.182,-3573.59,63194
541.129,-3575.41,63212
541.076,-3577.22,63310
541.023,-3579.03,63156
540.97,-3580.85,63201
540.917,-3582.66,63244
540.864,-3584.48,63272
540.811,-3586.29,63048
540.758,-3588.11,63089
540.705,-3589.92,63210
540.652,-3591.74,63221
540.598,-3593.56,63127
540.545,-3595.37,63164
540.492,-3597.19,63206
540.439,-3599.01,63108
540.386,-3600.83,63249
540.333,-3602.65,62886
540.28,-3604.46,62914
540.227,-3606.28,62943
540.174,-3608.1,62924
540.121,-3609.92,62942
540.067,-3611.74,62812
540.014,-3613.56,62912
539.961,-3615.38,62922
539.908,-3617.21,62913
539.855,-3619.03,62748
539.802,-3620.85,62919
539.749,-3622.67,62955
539.696,-3624.49,62754
539.643,-3626.32,62873
539.59,-3628.14,62907
539.537,-3629.96,62850
539.483,-3631.79,62738
539.43,-3633.61,62662
539.377,-3635.44,62794
539.324,-3637.26,62733
539.271,-3639.09,62747
539.218,-3640.91,62684
539.165,-3642.74,62768
539.112,-3644.57,62815
539.059,-3646.39,62525
539.006,-3648.22,62783
538.952,-3650.05,62671
538.899,-3651.88,62875
538.846,-3653.71,62661
538.793,-3655.53,62639
538.74,-3657.36,62584
538.687,-3659.19,62721
538.634,-3661.02,62575
538.581,-3662.85,62602
538.528,-3664.68,62566
538.475,-3666.51,62548
538.422,-3668.35,62566
538.368,-3670.18,62517
538.315,-3672.01,62612
538.262,-3673.84,62576
538.209,-3675.68,62533
538.156,-3677.51,62551
538.103,-3679.34,62557
538.05,-3681.18,62449
537.997,-3683.01,62394
537.944,-3684.84,62400
552.12,-3207.54,63491
552.067,-3209.28,63651
552.014,-3211.03,63836
551.961,-3212.77,63824
551.908,-3214.51,63856
551.855,-3216.25,63781
551.801,-3218,63816
551.748,-3219.74,63857
551.695,-3221.49,63829
551.642,-3223.23,63804
551.589,-3224.98,63913
551.536,-3226.72,63871
551.483,-3228.47,63774
551.43,-3230.21,63831
551.377,-3231.96,63995
551.324,-3233.7,63865
551.271,-3235.45,63897
551.217,-3237.2,63909
551.164,-3238.95,63899
551.111,-3240.69,63802
551.058,-3242.44,63934
551.005,-3244.19,63849
550.952,-3245.94,63792
550.899,-3247.69,63631
550.846,-3249.44,63793
550.793,-3251.19,63694
550.74,-3252.94,63795
550.686,-3254.69,63844
550.633,-3256.44,63718
550.58,-3258.19,63827
550.527,-3259.94,63893
550.474,-3261.7,63770
550.421,-3263.45,63710
550.368,-3265.2,63802
550.315,-3266.95,63815
550.262,-3268.71,63651
550.209,-3270.46,63770
550.156,-3272.22,63724
550.102,-3273.97,63666
550.049,-3275.73,63702
549.996,-3277.48,63837
549.943,-3279.24,63864
549.89,-3280.99,63675
549.837,-3282.75,63675
549.784,-3284.5,63877
549.731,-3286.26,63801
549.678,-3288.02,63774
549.625,-3289.78,63861
549.571,-3291.53,63644
549.518,-3293.29,63750
549.465,-3295.05,66750
549.412,-3296.81,63776
549.359,-3298.57,63699
549.306,-3300.33,63789
549.253,-3302.09,63711
549.2,-3303.85,63578
549.147,-3305.61,63714
549.094,-3307.37,63761
549.041,-3309.13,63720
548.987,-3310.89,63856
548.934,-3312.65,63925
548.881,-3314.41,63725
548.828,-3316.18,63642
548.775,-3317.94,63494
548.722,-3319.7,63669
548.669,-3321.47,63639
548.616,-3323.23,63830
548.563,-3325,63682
548.51,-3326.76,63677
548.456,-3328.52,63819
548.403,-3330.29,63750
548.35,-3332.06,63724
548.297,-3333.82,63543
548.244,-3335.59,63629
548.191,-3337.35,63727
548.138,-3339.12,63656
548.085,-3340.89,63639
548.032,-3342.66,63521
547.979,-3344.42,63846
547.926,-3346.19,63569
547.872,-3347.96,63655
547.819,-3349.73,63585
547.766,-3351.5,63569
547.713,-3353.27,63535
547.66,-3355.04,63739
547.607,-3356.81,63584
547.554,-3358.58,63503
547.501,-3360.35,63569
547.448,-3362.12,63524
547.395,-3363.9,63561
547.341,-3365.67,63537
547.288,-3367.44,63501
547.235,-3369.21,63369
547.182,-3370.99,63522
547.129,-3372.76,63502
547.076,-3374.53,63381
547.023,-3376.31,63444
546.97,-3378.08,63342
546.917,-3379.86,63347
546.864,-3381.63,63443
546.811,-3383.41,63366
546.757,-3385.18,63256
546.704,-3386.96,63308
546.651,-3388.74,63375
546.598,-3390.51,63180
546.545,-3392.29,63218
546.492,-3394.07,63204
546.439,-3395.85,62992
546.386,-3397.62,63232
546.333,-3399.4,63184
546.28,-3401.18,63309
546.226,-3402.96,63212
546.173,-3404.74,63126
546.12,-3406.52,63114
546.067,-3408.3,63022
546.014,-3410.08,63073
545.961,-3411.86,63007
545.908,-3413.65,62953
545.855,-3415.43,63311
545.802,-3417.21,63572
545.749,-3418.99,63496
545.696,-3420.77,63174
545.642,-3422.56,63024
545.589,-3424.34,63011
545.536,-3426.12,63046
545.483,-3427.91,62943
545.43,-3429.69,62981
545.377,-3431.48,62905
545.324,-3433.26,62985
545.271,-3435.05,62959
545.218,-3436.84,62866
545.165,-3438.62,63026
545.111,-3440.41,62965
545.058,-3442.2,62884
545.005,-3443.98,63026
544.952,-3445.77,62824
544.899,-3447.56,62814
544.846,-3449.35,62983
544.793,-3451.14,62944
544.74,-3452.92,62866
544.687,-3454.71,62845
544.634,-3456.5,62932
544.581,-3458.29,62802
544.527,-3460.08,63004
544.474,-3461.88,63018
544.421,-3463.67,62902
544.368,-3465.46,62971
544.315,-3467.25,62799
544.262,-3469.04,62940
544.209,-3470.83,62796
544.156,-3472.63,62880
544.103,-3474.42,62800
544.05,-3476.21,62727
543.997,-3478.01,62784
543.943,-3479.8,63049
543.89,-3481.6,62861
543.837,-3483.39,62844
543.784,-3485.19,62787
543.731,-3486.98,62817
543.678,-3488.78,62779
543.625,-3490.58,62750
543.572,-3492.37,62814
543.519,-3494.17,62792
543.466,-3495.97,62794
543.412,-3497.77,62687
543.359,-3499.56,62672
543.306,-3501.36,62752
543.253,-3503.16,62845
543.2,-3504.96,62697
543.147,-3506.76,62766
543.094,-3508.56,62788
543.041,-3510.36,62735
542.988,-3512.16,62814
542.935,-3513.96,62826
542.882,-3515.76,62754
542.828,-3517.57,62764
542.775,-3519.37,62747
542.722,-3521.17,62842
542.669,-3522.97,62819
542.616,-3524.78,62788
542.563,-3526.58,62789
542.51,-3528.38,62596
542.457,-3530.19,62651
542.404,-3531.99,62642
542.351,-3533.8,62541
542.297,-3535.6,62682
542.244,-3537.41,62593
542.191,-3539.21,62623
542.138,-3541.02,62667
542.085,-3542.83,62546
542.032,-3544.63,62639
541.979,-3546.44,62586
541.926,-3548.25,62750
541.873,-3550.06,62480
541.82,-3551.86,62634
541.767,-3553.67,62584
541.713,-3555.48,62596
541.66,-3557.29,62607
541.607,-3559.1,62575
541.554,-3560.91,62333
541.501,-3562.72,62518
541.448,-3564.53,62615
541.395,-3566.35,62518
541.342,-3568.16,62542
541.289,-3569.97,62539
541.236,-3571.78,62511
541.182,-3573.59,62390
541.129,-3575.41,62621
541.076,-3577.22,64274
541.023,-3579.03,67385
540.97,-3580.85,64279
540.917,-3582.66,66639
540.864,-3584.48,62419
540.811,-3586.29,62453
540.758,-3588.11,62326
540.705,-3589.92,62345
540.652,-3591.74,62259
540.598,-3593.56,62536
540.545,-3595.37,62321
540.492,-3597.19,62361
540.439,-3599.01,62324
540.386,-3600.83,62259
540.333,-3602.65,62391
540.28,-3604.46,62373
540.227,-3606.28,62217
540.174,-3608.1,62219
540.121,-3609.92,62443
540.067,-3611.74,62152
540.014,-3613.56,62280
539.961,-3615.38,62249
539.908,-3617.21,62236
539.855,-3619.03,62239
539.802,-3620.85,62184
539.749,-3622.67,62121
539.696,-3624.49,62134
539.643,-3626.32,62162
539.59,-3628.14,62091
539.537,-3629.96,62249
539.483,-3631.79,62136
539.43,-3633.61,62206
539.377,-3635.44,62109
539.324,-3637.26,62080
539.271,-3639.09,62029
539.218,-3640.91,62077
539.165,-3642.74,62051
539.112,-3644.57,61979
539.059,-3646.39,62249
539.006,-3648.22,62108
538.952,-3650.05,62142
538.899,-3651.88,62103
538.846,-3653.71,62071
538.793,-3655.53,62077
538.74,-3657.36,61983
538.687,-3659.19,61967
538.634,-3661.02,61930
538.581,-3662.85,62086
538.528,-3664.68,62089
538.475,-3666.51,61962
538.422,-3668.35,61971
538.368,-3670.18,61918
538.315,-3672.01,61993
538.262,-3673.84,61962
538.209,-3675.68,62060
538.156,-3677.51,62002
538.103,-3679.34,61929
538.05,-3681.18,61873
537.997,-3683.01,61737
537.944,-3684.84,61881
552.12,-3207.54,62691
552.067,-3209.28,63011
552.014,-3211.03,62899
551.961,-3212.77,62961
551.908,-3214.51,62853
551.855,-3216.25,62891
551.801,-3218,62907
551.748,-3219.74,62995
551.695,-3221.49,62890
551.642,-3223.23,62908
551.589,-3224.98,63179
551.536,-3226.72,62906
551.483,-3228.47,62945
551.43,-3230.21,63030
551.377,-3231.96,62964
551.324,-3233.7,63048
551.271,-3235.45,62870
551.217,-3237.2,63287
551.164,-3238.95,62948
551.111,-3240.69,62922
551.058,-3242.44,63021
551.005,-3244.19,62896
550.952,-3245.94,63104
550.899,-3247.69,62968
550.846,-3249.44,62892
550.793,-3251.19,62984
550.74,-3252.94,62882
550.686,-3254.69,62933
550.633,-3256.44,62879
550.58,-3258.19,62982
550.527,-3259.94,62807
550.474,-3261.7,62940
550.421,-3263.45,62913
550.368,-3265.2,63015
550.315,-3266.95,62817
550.262,-3268.71,62807
550.209,-3270.46,62904
550.156,-3272.22,62979
550.102,-3273.97,62790
550.049,-3275.73,62859
549.996,-3277.48,62933
549.943,-3279.24,62859
549.89,-3280.99,62974
549.837,-3282.75,62853
549.784,-3284.5,62833
549.731,-3286.26,62860
549.678,-3288.02,62979
549.625,-3289.78,62817
549.571,-3291.53,62952
549.518,-3293.29,62996
549.465,-3295.05,62994
549.412,-3296.81,62890
549.359,-3298.57,63001
549.306,-3300.33,62967
549.253,-3302.09,62859
549.2,-3303.85,62981
549.147,-3305.61,62978
549.094,-3307.37,62968
549.041,-3309.13,62999
548.987,-3310.89,62891
548.934,-3312.65,62858
548.881,-3314.41,62965
548.828,-3316.18,62815
548.775,-3317.94,62793
548.722,-3319.7,62951
548.669,-3321.47,62896
548.616,-3323.23,62752
548.563,-3325,62992
548.51,-3326.76,62957
548.456,-3328.52,62919
548.403,-3330.29,62861
548.35,-3332.06,62768
548.297,-3333.82,62860
548.244,-3335.59,62908
548.191,-3337.35,62795
548.138,-3339.12,62826
548.085,-3340.89,62931
548.032,-3342.66,62825
547.979,-3344.42,62907
547.926,-3346.19,62856
547.872,-3347.96,62938
547.819,-3349.73,62756
547.766,-3351.5,62797
547.713,-3353.27,62817
547.66,-3355.04,62888
547.607,-3356.81,62717
547.554,-3358.58,62715
547.501,-3360.35,62755
547.448,-3362.12,62827
547.395,-3363.9,62832
547.341,-3365.67,62691
547.288,-3367.44,62654
547.235,-3369.21,62793
547.182,-3370.99,62657
547.129,-3372.76,62607
547.076,-3374.53,62661
547.023,-3376.31,62582
546.97,-3378.08,62628
546.917,-3379.86,62592
546.864,-3381.63,62594
546.811,-3383.41,62538
546.757,-3385.18,62723
546.704,-3386.96,62650
546.651,-3388.74,62534
546.598,-3390.51,62465
546.545,-3392.29,62571
546.492,-3394.07,62375
546.439,-3395.85,62469
546.386,-3397.62,62387
546.333,-3399.4,62417
546.28,-3401.18,62523
546.226,-3402.96,62530
546.173,-3404.74,62312
546.12,-3406.52,62414
546.067,-3408.3,62385
546.014,-3410.08,62469
545.961,-3411.86,62329
545.908,-3413.65,62438
545.855,-3415.43,62707
545.802,-3417.21,62839
545.749,-3418.99,62491
545.696,-3420.77,62419
545.642,-3422.56,62445
545.589,-3424.34,62373
545.536,-3426.12,62316
545.483,-3427.91,62267
545.43,-3429.69,62318
545.377,-3431.48,62388
545.324,-3433.26,62304
545.271,-3435.05,62417
545.218,-3436.84,62378
545.165,-3438.62,62276
545.111,-3440.41,62370
545.058,-3442.2,62308
545.005,-3443.98,62264
544.952,-3445.77,62342
544.899,-3447.56,62212
544.846,-3449.35,62139
544.793,-3451.14,62250
544.74,-3452.92,62209
544.687,-3454.71,62309
544.634,-3456.5,62232
544.581,-3458.29,62347
544.527,-3460.08,62134
544.474,-3461.88,62205
544.421,-3463.67,62326
544.368,-3465.46,62101
544.315,-3467.25,62133
544.262,-3469.04,62251
544.209,-3470.83,62210
544.156,-3472.63,62146
544.103,-3474.42,62367
544.05,-3476.21,62321
543.997,-3478.01,62172
543.943,-3479.8,62280
543.89,-3481.6,62197
543.837,-3483.39,62303
543.784,-3485.19,62283
543.731,-3486.98,62246
543.678,-3488.78,62097
543.625,-3490.58,62150
543.572,-3492.37,62295
543.519,-3494.17,62259
543.466,-3495.97,62111
543.412,-3497.77,62158
543.359,-3499.56,62083
543.306,-3501.36,62197
543.253,-3503.16,62163
543.2,-3504.96,62189
543.147,-3506.76,62198
543.094,-3508.56,62122
543.041,-3510.36,62242
542.988,-3512.16,62174
542.935,-3513.96,62128
542.882,-3515.76,62113
542.828,-3517.57,62211
542.775,-3519.37,62196
542.722,-3521.17,62175
542.669,-3522.97,62152
542.616,-3524.78,62213
542.563,-3526.58,62050
542.51,-3528.38,62212
542.457,-3530.19,61992
542.404,-3531.99,62103
542.351,-3533.8,61955
542.297,-3535.6,62020
542.244,-3537.41,62098
542.191,-3539.21,61953
542.138,-3541.02,62202
542.085,-3542.83,61985
542.032,-3544.63,62029
541.979,-3546.44,62147
541.926,-3548.25,61983
541.873,-3550.06,61986
541.82,-3551.86,61911
541.767,-3553.67,61924
541.713,-3555.48,62028
541.66,-3557.29,61878
541.607,-3559.1,62181
541.554,-3560.91,62022
541.501,-3562.72,61906
541.448,-3564.53,61855
541.395,-3566.35,61812
541.342,-3568.16,61954
541.289,-3569.97,61927
541.236,-3571.78,61822
541.182,-3573.59,61872
541.129,-3575.41,61879
541.076,-3577.22,61852
541.023,-3579.03,61891
540.97,-3580.85,61891
540.917,-3582.66,61933
540.864,-3584.48,61848
540.811,-3586.29,61935
540.758,-3588.11,61881
540.705,-3589.92,61837
540.652,-3591.74,61795
540.598,-3593.56,61820
540.545,-3595.37,61795
540.492,-3597.19,61825
540.439,-3599.01,61757
540.386,-3600.83,61793
540.333,-3602.65,61812
540.28,-3604.46,61715
540.227,-3606.28,61822
540.174,-3608.1,61713
540.121,-3609.92,61692
540.067,-3611.74,61717
540.014,-3613.56,61791
539.961,-3615.38,61839
539.908,-3617.21,61829
539.855,-3619.03,61741
539.802,-3620.85,61726
539.749,-3622.67,61603
539.696,-3624.49,61729
539.643,-3626.32,61674
539.59,-3628.14,61608
539.537,-3629.96,61778
539.483,-3631.79,61610
539.43,-3633.61,61715
539.377,-3635.44,61550
539.324,-3637.26,61632
539.271,-3639.09,61522
539.218,-3640.91,61632
539.165,-3642.74,61604
539.112,-3644.57,61544
539.059,-3646.39,61741
539.006,-3648.22,61529
538.952,-3650.05,61576
538.899,-3651.88,61621
538.846,-3653.71,61508
538.793,-3655.53,61628
538.74,-3657.36,61619
538.687,-3659.19,61486
538.634,-3661.02,61417
538.581,-3662.85,61460
538.528,-3664.68,61500
538.475,-3666.51,61537
538.422,-3668.35,61550
538.368,-3670.18,61502
538.315,-3672.01,61530
538.262,-3673.84,61449
538.209,-3675.68,61514
538.156,-3677.51,61399
538.103,-3679.34,61516
538.05,-3681.18,61548
537.997,-3683.01,61561
537.944,-3684.84,61387
537.901,-3686.31,61358